subjectID,day,trial_index,phase,stage,conditOrder,assignedCond,trialType,rt,stimulus,time_elapsed,button_pressed,correctFurnitureSound,correctCarSound,correctKitchenSound,correctDogSound,correctInsectSound,correctClothesSound,furnitureFreq,carFreq,kitchenFreq,dogFreq,insectFreq,clothesFreq,response_type,image1,image2,image3,image4,image5,image6,sound1,sound2,sound3,internal_node_id,avg_frame_time,view_history,test_sound,answer,answerFreq,key_press,correctinstrumentSound,correctplantSound,correcttoolsSound,correctbirdSound,correctfruitSound,correctapplianceSound,instrumentFreq,plantFreq,toolsFreq,birdFreq,fruitFreq,applianceFreq,correctshipSound,correctvegetableSound,correcttimeSound,correctfishSound,correctlightSound,correctsportsSound,shipFreq,vegetableFreq,timeFreq,fishFreq,lightFreq,sportsFreq,csl_zipf_datacol,trial_type,shipInd,vegetableInd,timeInd,fishInd,lightInd,sportsInd,instrumentInd,plantInd,toolsInd,birdInd,fruitInd,applianceInd,furnitureInd,carInd,kitchenInd,dogInd,insectInd,clothesInd
NULL,NULL,0,NULL,NULL,NULL,NULL,NULL,21322.385000007,NULL,21325,NULL,NULL,NULL,NULL,NULL,NULL,NULL,NULL,NULL,NULL,NULL,NULL,NULL,NULL,NULL,NULL,NULL,NULL,NULL,NULL,NULL,NULL,NULL,0.0-0.0,NULL,"[{"page_index":0,"viewing_time":8330.189999993308},{"page_index":1,"viewing_time":7173.0550000065705},{"page_index":2,"viewing_time":3468.7600000033854},{"page_index":3,"viewing_time":2348.84999999485",NULL,NULL,NULL,NULL,NULL,NULL,NULL,NULL,NULL,NULL,NULL,NULL,NULL,NULL,NULL,NULL,NULL,NULL,NULL,NULL,NULL,NULL,NULL,NULL,NULL,NULL,NULL,NULL,NULL,instructions,NULL,NULL,NULL,NULL,NULL,NULL,NULL,NULL,NULL,NULL,NULL,NULL,NULL,NULL,NULL,NULL,NULL,NULL
47785,02/29/2020,1,one,pre,NULL,mixed,NULL,8813.1399999984,./audio/elephant.mp3,30145,0,NULL,NULL,NULL,NULL,NULL,NULL,NULL,NULL,NULL,NULL,NULL,NULL,NULL,NULL,NULL,NULL,NULL,NULL,NULL,NULL,NULL,NULL,0.0-1.0,NULL,NULL,NULL,NULL,NULL,NULL,NULL,NULL,NULL,NULL,NULL,NULL,NULL,NULL,NULL,NULL,NULL,NULL,NULL,NULL,NULL,NULL,NULL,NULL,NULL,NULL,NULL,NULL,NULL,NULL,NULL,audio-button-response-custom,NULL,NULL,NULL,NULL,NULL,NULL,NULL,NULL,NULL,NULL,NULL,NULL,NULL,NULL,NULL,NULL,NULL,NULL
47785,02/29/2020,2,1,train1,"[3,2,1]",mixed,NULL,10511.469999998,NULL,40658,NULL,./audio/gree.mp3,./audio/agen.mp3,./audio/culp.mp3,./audio/coodle.mp3,./audio/eder.mp3,./audio/hage.mp3,"[11,5,3,1]","[5,5,5,5]","[5,5,5,5]","[11,5,3,1]","[11,5,3,1]","[5,5,5,5]",NULL,NULL,NULL,NULL,NULL,NULL,NULL,NULL,NULL,NULL,0.0-2.0,NULL,"[{"page_index":0,"viewing_time":10511.189999990165}]",NULL,NULL,NULL,NULL,NULL,NULL,NULL,NULL,NULL,NULL,NULL,NULL,NULL,NULL,NULL,NULL,NULL,NULL,NULL,NULL,NULL,NULL,NULL,NULL,NULL,NULL,NULL,NULL,NULL,instructions,NULL,NULL,NULL,NULL,NULL,NULL,NULL,NULL,NULL,NULL,NULL,NULL,"[2,5,1,3,4,0]","[2,4,5,3,1,0]","[1,0,2,4,5,3]","[1,4,3,5,2,0]","[2,0,3,4,1,5]","[1,5,4,0,3,2]"
47785,02/29/2020,3,1,train1,NULL,mixed,NULL,13353.394999998,NULL,56618,NULL,NULL,NULL,NULL,NULL,NULL,NULL,NULL,NULL,NULL,NULL,NULL,NULL,key,img/clothes/sho6.jpg,img/dishware/cup1.jpg,img/animals/dog2.jpg,NULL,NULL,NULL,./audio/coodle.mp3,./audio/culp.mp3,./audio/hage.mp3,0.0-3.0,16.702992677824,NULL,NULL,NULL,NULL,32,NULL,NULL,NULL,NULL,NULL,NULL,NULL,NULL,NULL,NULL,NULL,NULL,NULL,NULL,NULL,NULL,NULL,NULL,NULL,NULL,NULL,NULL,NULL,NULL,NULL,psychophysics,NULL,NULL,NULL,NULL,NULL,NULL,NULL,NULL,NULL,NULL,NULL,NULL,NULL,NULL,NULL,NULL,NULL,NULL
47785,02/29/2020,4,1,train1,NULL,mixed,NULL,,"<div style="font-size:60px;">+</div>",56875,,NULL,NULL,NULL,NULL,NULL,NULL,NULL,NULL,NULL,NULL,NULL,NULL,NULL,NULL,NULL,NULL,NULL,NULL,NULL,NULL,NULL,NULL,0.0-4.0,NULL,NULL,NULL,NULL,NULL,NULL,NULL,NULL,NULL,NULL,NULL,NULL,NULL,NULL,NULL,NULL,NULL,NULL,NULL,NULL,NULL,NULL,NULL,NULL,NULL,NULL,NULL,NULL,NULL,NULL,NULL,html-button-response,NULL,NULL,NULL,NULL,NULL,NULL,NULL,NULL,NULL,NULL,NULL,NULL,NULL,NULL,NULL,NULL,NULL,NULL
47785,02/29/2020,5,1,train1,NULL,mixed,NULL,7706.3650000055,NULL,67185,NULL,NULL,NULL,NULL,NULL,NULL,NULL,NULL,NULL,NULL,NULL,NULL,NULL,key,img/dishware/cup1.jpg,img/furniture/chair6.jpg,img/cars/car3.jpg,NULL,NULL,NULL,./audio/agen.mp3,./audio/gree.mp3,./audio/culp.mp3,0.0-5.0,16.694739482201,NULL,NULL,NULL,NULL,32,NULL,NULL,NULL,NULL,NULL,NULL,NULL,NULL,NULL,NULL,NULL,NULL,NULL,NULL,NULL,NULL,NULL,NULL,NULL,NULL,NULL,NULL,NULL,NULL,NULL,psychophysics,NULL,NULL,NULL,NULL,NULL,NULL,NULL,NULL,NULL,NULL,NULL,NULL,NULL,NULL,NULL,NULL,NULL,NULL
47785,02/29/2020,6,1,train1,NULL,mixed,NULL,,"<div style="font-size:60px;">+</div>",67440,,NULL,NULL,NULL,NULL,NULL,NULL,NULL,NULL,NULL,NULL,NULL,NULL,NULL,NULL,NULL,NULL,NULL,NULL,NULL,NULL,NULL,NULL,0.0-6.0,NULL,NULL,NULL,NULL,NULL,NULL,NULL,NULL,NULL,NULL,NULL,NULL,NULL,NULL,NULL,NULL,NULL,NULL,NULL,NULL,NULL,NULL,NULL,NULL,NULL,NULL,NULL,NULL,NULL,NULL,NULL,html-button-response,NULL,NULL,NULL,NULL,NULL,NULL,NULL,NULL,NULL,NULL,NULL,NULL,NULL,NULL,NULL,NULL,NULL,NULL
47785,02/29/2020,7,1,train1,NULL,mixed,NULL,6066.5900000022,NULL,76109,NULL,NULL,NULL,NULL,NULL,NULL,NULL,NULL,NULL,NULL,NULL,NULL,NULL,key,img/insects/but3.jpg,img/dishware/mug2.jpg,img/animals/dog2.jpg,NULL,NULL,NULL,./audio/culp.mp3,./audio/eder.mp3,./audio/coodle.mp3,0.0-7.0,16.700104046243,NULL,NULL,NULL,NULL,32,NULL,NULL,NULL,NULL,NULL,NULL,NULL,NULL,NULL,NULL,NULL,NULL,NULL,NULL,NULL,NULL,NULL,NULL,NULL,NULL,NULL,NULL,NULL,NULL,NULL,psychophysics,NULL,NULL,NULL,NULL,NULL,NULL,NULL,NULL,NULL,NULL,NULL,NULL,NULL,NULL,NULL,NULL,NULL,NULL
47785,02/29/2020,8,1,train1,NULL,mixed,NULL,,"<div style="font-size:60px;">+</div>",76362,,NULL,NULL,NULL,NULL,NULL,NULL,NULL,NULL,NULL,NULL,NULL,NULL,NULL,NULL,NULL,NULL,NULL,NULL,NULL,NULL,NULL,NULL,0.0-8.0,NULL,NULL,NULL,NULL,NULL,NULL,NULL,NULL,NULL,NULL,NULL,NULL,NULL,NULL,NULL,NULL,NULL,NULL,NULL,NULL,NULL,NULL,NULL,NULL,NULL,NULL,NULL,NULL,NULL,NULL,NULL,html-button-response,NULL,NULL,NULL,NULL,NULL,NULL,NULL,NULL,NULL,NULL,NULL,NULL,NULL,NULL,NULL,NULL,NULL,NULL
47785,02/29/2020,9,1,train1,NULL,mixed,NULL,5709.7799999901,NULL,84675,NULL,NULL,NULL,NULL,NULL,NULL,NULL,NULL,NULL,NULL,NULL,NULL,NULL,key,img/furniture/chair6.jpg,img/animals/dog5.jpg,img/clothes/sho5.jpg,NULL,NULL,NULL,./audio/gree.mp3,./audio/coodle.mp3,./audio/hage.mp3,0.0-9.0,16.667981927711,NULL,NULL,NULL,NULL,32,NULL,NULL,NULL,NULL,NULL,NULL,NULL,NULL,NULL,NULL,NULL,NULL,NULL,NULL,NULL,NULL,NULL,NULL,NULL,NULL,NULL,NULL,NULL,NULL,NULL,psychophysics,NULL,NULL,NULL,NULL,NULL,NULL,NULL,NULL,NULL,NULL,NULL,NULL,NULL,NULL,NULL,NULL,NULL,NULL
47785,02/29/2020,10,1,train1,NULL,mixed,NULL,,"<div style="font-size:60px;">+</div>",84931,,NULL,NULL,NULL,NULL,NULL,NULL,NULL,NULL,NULL,NULL,NULL,NULL,NULL,NULL,NULL,NULL,NULL,NULL,NULL,NULL,NULL,NULL,0.0-10.0,NULL,NULL,NULL,NULL,NULL,NULL,NULL,NULL,NULL,NULL,NULL,NULL,NULL,NULL,NULL,NULL,NULL,NULL,NULL,NULL,NULL,NULL,NULL,NULL,NULL,NULL,NULL,NULL,NULL,NULL,NULL,html-button-response,NULL,NULL,NULL,NULL,NULL,NULL,NULL,NULL,NULL,NULL,NULL,NULL,NULL,NULL,NULL,NULL,NULL,NULL
47785,02/29/2020,11,1,train1,NULL,mixed,NULL,5085.3800000041,NULL,92618,NULL,NULL,NULL,NULL,NULL,NULL,NULL,NULL,NULL,NULL,NULL,NULL,NULL,key,img/dishware/cup3.jpg,img/insects/but3.jpg,img/clothes/sho6.jpg,NULL,NULL,NULL,./audio/culp.mp3,./audio/eder.mp3,./audio/hage.mp3,0.0-11.0,16.668097613883,NULL,NULL,NULL,NULL,32,NULL,NULL,NULL,NULL,NULL,NULL,NULL,NULL,NULL,NULL,NULL,NULL,NULL,NULL,NULL,NULL,NULL,NULL,NULL,NULL,NULL,NULL,NULL,NULL,NULL,psychophysics,NULL,NULL,NULL,NULL,NULL,NULL,NULL,NULL,NULL,NULL,NULL,NULL,NULL,NULL,NULL,NULL,NULL,NULL
47785,02/29/2020,12,1,train1,NULL,mixed,NULL,,"<div style="font-size:60px;">+</div>",92872,,NULL,NULL,NULL,NULL,NULL,NULL,NULL,NULL,NULL,NULL,NULL,NULL,NULL,NULL,NULL,NULL,NULL,NULL,NULL,NULL,NULL,NULL,0.0-12.0,NULL,NULL,NULL,NULL,NULL,NULL,NULL,NULL,NULL,NULL,NULL,NULL,NULL,NULL,NULL,NULL,NULL,NULL,NULL,NULL,NULL,NULL,NULL,NULL,NULL,NULL,NULL,NULL,NULL,NULL,NULL,html-button-response,NULL,NULL,NULL,NULL,NULL,NULL,NULL,NULL,NULL,NULL,NULL,NULL,NULL,NULL,NULL,NULL,NULL,NULL
47785,02/29/2020,13,1,train1,NULL,mixed,NULL,4480.2349999954,NULL,99955,NULL,NULL,NULL,NULL,NULL,NULL,NULL,NULL,NULL,NULL,NULL,NULL,NULL,key,img/cars/car3.jpg,img/animals/dog2.jpg,img/clothes/sho2.jpg,NULL,NULL,NULL,./audio/agen.mp3,./audio/coodle.mp3,./audio/hage.mp3,0.0-13.0,16.667,NULL,NULL,NULL,NULL,32,NULL,NULL,NULL,NULL,NULL,NULL,NULL,NULL,NULL,NULL,NULL,NULL,NULL,NULL,NULL,NULL,NULL,NULL,NULL,NULL,NULL,NULL,NULL,NULL,NULL,psychophysics,NULL,NULL,NULL,NULL,NULL,NULL,NULL,NULL,NULL,NULL,NULL,NULL,NULL,NULL,NULL,NULL,NULL,NULL
47785,02/29/2020,14,1,train1,NULL,mixed,NULL,,"<div style="font-size:60px;">+</div>",100210,,NULL,NULL,NULL,NULL,NULL,NULL,NULL,NULL,NULL,NULL,NULL,NULL,NULL,NULL,NULL,NULL,NULL,NULL,NULL,NULL,NULL,NULL,0.0-14.0,NULL,NULL,NULL,NULL,NULL,NULL,NULL,NULL,NULL,NULL,NULL,NULL,NULL,NULL,NULL,NULL,NULL,NULL,NULL,NULL,NULL,NULL,NULL,NULL,NULL,NULL,NULL,NULL,NULL,NULL,NULL,html-button-response,NULL,NULL,NULL,NULL,NULL,NULL,NULL,NULL,NULL,NULL,NULL,NULL,NULL,NULL,NULL,NULL,NULL,NULL
47785,02/29/2020,15,1,train1,NULL,mixed,NULL,6225.3750000091,NULL,109038,NULL,NULL,NULL,NULL,NULL,NULL,NULL,NULL,NULL,NULL,NULL,NULL,NULL,key,img/cars/car4.jpg,img/dishware/cup2.jpg,img/insects/but3.jpg,NULL,NULL,NULL,./audio/agen.mp3,./audio/culp.mp3,./audio/eder.mp3,0.0-15.0,16.699400756144,NULL,NULL,NULL,NULL,32,NULL,NULL,NULL,NULL,NULL,NULL,NULL,NULL,NULL,NULL,NULL,NULL,NULL,NULL,NULL,NULL,NULL,NULL,NULL,NULL,NULL,NULL,NULL,NULL,NULL,psychophysics,NULL,NULL,NULL,NULL,NULL,NULL,NULL,NULL,NULL,NULL,NULL,NULL,NULL,NULL,NULL,NULL,NULL,NULL
47785,02/29/2020,16,1,train1,NULL,mixed,NULL,,"<div style="font-size:60px;">+</div>",109289,,NULL,NULL,NULL,NULL,NULL,NULL,NULL,NULL,NULL,NULL,NULL,NULL,NULL,NULL,NULL,NULL,NULL,NULL,NULL,NULL,NULL,NULL,0.0-16.0,NULL,NULL,NULL,NULL,NULL,NULL,NULL,NULL,NULL,NULL,NULL,NULL,NULL,NULL,NULL,NULL,NULL,NULL,NULL,NULL,NULL,NULL,NULL,NULL,NULL,NULL,NULL,NULL,NULL,NULL,NULL,html-button-response,NULL,NULL,NULL,NULL,NULL,NULL,NULL,NULL,NULL,NULL,NULL,NULL,NULL,NULL,NULL,NULL,NULL,NULL
47785,02/29/2020,17,1,train1,NULL,mixed,NULL,5059.9799999909,NULL,116950,NULL,NULL,NULL,NULL,NULL,NULL,NULL,NULL,NULL,NULL,NULL,NULL,NULL,key,img/animals/dog6.jpg,img/cars/car3.jpg,img/dishware/cup3.jpg,NULL,NULL,NULL,./audio/agen.mp3,./audio/coodle.mp3,./audio/culp.mp3,0.0-17.0,16.668091503268,NULL,NULL,NULL,NULL,32,NULL,NULL,NULL,NULL,NULL,NULL,NULL,NULL,NULL,NULL,NULL,NULL,NULL,NULL,NULL,NULL,NULL,NULL,NULL,NULL,NULL,NULL,NULL,NULL,NULL,psychophysics,NULL,NULL,NULL,NULL,NULL,NULL,NULL,NULL,NULL,NULL,NULL,NULL,NULL,NULL,NULL,NULL,NULL,NULL
47785,02/29/2020,18,1,train1,NULL,mixed,NULL,,"<div style="font-size:60px;">+</div>",117202,,NULL,NULL,NULL,NULL,NULL,NULL,NULL,NULL,NULL,NULL,NULL,NULL,NULL,NULL,NULL,NULL,NULL,NULL,NULL,NULL,NULL,NULL,0.0-18.0,NULL,NULL,NULL,NULL,NULL,NULL,NULL,NULL,NULL,NULL,NULL,NULL,NULL,NULL,NULL,NULL,NULL,NULL,NULL,NULL,NULL,NULL,NULL,NULL,NULL,NULL,NULL,NULL,NULL,NULL,NULL,html-button-response,NULL,NULL,NULL,NULL,NULL,NULL,NULL,NULL,NULL,NULL,NULL,NULL,NULL,NULL,NULL,NULL,NULL,NULL
47785,02/29/2020,19,1,train1,NULL,mixed,NULL,5338.0599999946,NULL,125141,NULL,NULL,NULL,NULL,NULL,NULL,NULL,NULL,NULL,NULL,NULL,NULL,NULL,key,img/insects/but3.jpg,img/animals/dog2.jpg,img/clothes/sho1.jpg,NULL,NULL,NULL,./audio/coodle.mp3,./audio/hage.mp3,./audio/eder.mp3,0.0-19.0,16.668025210084,NULL,NULL,NULL,NULL,32,NULL,NULL,NULL,NULL,NULL,NULL,NULL,NULL,NULL,NULL,NULL,NULL,NULL,NULL,NULL,NULL,NULL,NULL,NULL,NULL,NULL,NULL,NULL,NULL,NULL,psychophysics,NULL,NULL,NULL,NULL,NULL,NULL,NULL,NULL,NULL,NULL,NULL,NULL,NULL,NULL,NULL,NULL,NULL,NULL
47785,02/29/2020,20,1,train1,NULL,mixed,NULL,,"<div style="font-size:60px;">+</div>",125393,,NULL,NULL,NULL,NULL,NULL,NULL,NULL,NULL,NULL,NULL,NULL,NULL,NULL,NULL,NULL,NULL,NULL,NULL,NULL,NULL,NULL,NULL,0.0-20.0,NULL,NULL,NULL,NULL,NULL,NULL,NULL,NULL,NULL,NULL,NULL,NULL,NULL,NULL,NULL,NULL,NULL,NULL,NULL,NULL,NULL,NULL,NULL,NULL,NULL,NULL,NULL,NULL,NULL,NULL,NULL,html-button-response,NULL,NULL,NULL,NULL,NULL,NULL,NULL,NULL,NULL,NULL,NULL,NULL,NULL,NULL,NULL,NULL,NULL,NULL
47785,02/29/2020,21,1,train1,NULL,mixed,NULL,4646.0399999924,NULL,132641,NULL,NULL,NULL,NULL,NULL,NULL,NULL,NULL,NULL,NULL,NULL,NULL,NULL,key,img/furniture/chair3.jpg,img/clothes/sho6.jpg,img/cars/car3.jpg,NULL,NULL,NULL,./audio/agen.mp3,./audio/gree.mp3,./audio/hage.mp3,0.0-21.0,16.668151724138,NULL,NULL,NULL,NULL,32,NULL,NULL,NULL,NULL,NULL,NULL,NULL,NULL,NULL,NULL,NULL,NULL,NULL,NULL,NULL,NULL,NULL,NULL,NULL,NULL,NULL,NULL,NULL,NULL,NULL,psychophysics,NULL,NULL,NULL,NULL,NULL,NULL,NULL,NULL,NULL,NULL,NULL,NULL,NULL,NULL,NULL,NULL,NULL,NULL
47785,02/29/2020,22,1,train1,NULL,mixed,NULL,,"<div style="font-size:60px;">+</div>",132893,,NULL,NULL,NULL,NULL,NULL,NULL,NULL,NULL,NULL,NULL,NULL,NULL,NULL,NULL,NULL,NULL,NULL,NULL,NULL,NULL,NULL,NULL,0.0-22.0,NULL,NULL,NULL,NULL,NULL,NULL,NULL,NULL,NULL,NULL,NULL,NULL,NULL,NULL,NULL,NULL,NULL,NULL,NULL,NULL,NULL,NULL,NULL,NULL,NULL,NULL,NULL,NULL,NULL,NULL,NULL,html-button-response,NULL,NULL,NULL,NULL,NULL,NULL,NULL,NULL,NULL,NULL,NULL,NULL,NULL,NULL,NULL,NULL,NULL,NULL
47785,02/29/2020,23,1,train1,NULL,mixed,NULL,4027.900000001,NULL,139523,NULL,NULL,NULL,NULL,NULL,NULL,NULL,NULL,NULL,NULL,NULL,NULL,NULL,key,img/clothes/sho5.jpg,img/cars/car4.jpg,img/insects/but1.jpg,NULL,NULL,NULL,./audio/eder.mp3,./audio/agen.mp3,./audio/hage.mp3,0.0-23.0,16.667,NULL,NULL,NULL,NULL,32,NULL,NULL,NULL,NULL,NULL,NULL,NULL,NULL,NULL,NULL,NULL,NULL,NULL,NULL,NULL,NULL,NULL,NULL,NULL,NULL,NULL,NULL,NULL,NULL,NULL,psychophysics,NULL,NULL,NULL,NULL,NULL,NULL,NULL,NULL,NULL,NULL,NULL,NULL,NULL,NULL,NULL,NULL,NULL,NULL
47785,02/29/2020,24,1,train1,NULL,mixed,NULL,,"<div style="font-size:60px;">+</div>",139775,,NULL,NULL,NULL,NULL,NULL,NULL,NULL,NULL,NULL,NULL,NULL,NULL,NULL,NULL,NULL,NULL,NULL,NULL,NULL,NULL,NULL,NULL,0.0-24.0,NULL,NULL,NULL,NULL,NULL,NULL,NULL,NULL,NULL,NULL,NULL,NULL,NULL,NULL,NULL,NULL,NULL,NULL,NULL,NULL,NULL,NULL,NULL,NULL,NULL,NULL,NULL,NULL,NULL,NULL,NULL,html-button-response,NULL,NULL,NULL,NULL,NULL,NULL,NULL,NULL,NULL,NULL,NULL,NULL,NULL,NULL,NULL,NULL,NULL,NULL
47785,02/29/2020,25,1,train1,NULL,mixed,NULL,3415.1399999973,NULL,145792,NULL,NULL,NULL,NULL,NULL,NULL,NULL,NULL,NULL,NULL,NULL,NULL,NULL,key,img/insects/but4.jpg,img/cars/car4.jpg,img/dishware/cup3.jpg,NULL,NULL,NULL,./audio/agen.mp3,./audio/eder.mp3,./audio/culp.mp3,0.0-25.0,16.668351800554,NULL,NULL,NULL,NULL,32,NULL,NULL,NULL,NULL,NULL,NULL,NULL,NULL,NULL,NULL,NULL,NULL,NULL,NULL,NULL,NULL,NULL,NULL,NULL,NULL,NULL,NULL,NULL,NULL,NULL,psychophysics,NULL,NULL,NULL,NULL,NULL,NULL,NULL,NULL,NULL,NULL,NULL,NULL,NULL,NULL,NULL,NULL,NULL,NULL
47785,02/29/2020,26,1,train1,NULL,mixed,NULL,,"<div style="font-size:60px;">+</div>",146048,,NULL,NULL,NULL,NULL,NULL,NULL,NULL,NULL,NULL,NULL,NULL,NULL,NULL,NULL,NULL,NULL,NULL,NULL,NULL,NULL,NULL,NULL,0.0-26.0,NULL,NULL,NULL,NULL,NULL,NULL,NULL,NULL,NULL,NULL,NULL,NULL,NULL,NULL,NULL,NULL,NULL,NULL,NULL,NULL,NULL,NULL,NULL,NULL,NULL,NULL,NULL,NULL,NULL,NULL,NULL,html-button-response,NULL,NULL,NULL,NULL,NULL,NULL,NULL,NULL,NULL,NULL,NULL,NULL,NULL,NULL,NULL,NULL,NULL,NULL
47785,02/29/2020,27,1,train1,NULL,mixed,NULL,4791.9450000045,NULL,153443,NULL,NULL,NULL,NULL,NULL,NULL,NULL,NULL,NULL,NULL,NULL,NULL,NULL,key,img/furniture/chair3.jpg,img/dishware/mug2.jpg,img/insects/but3.jpg,NULL,NULL,NULL,./audio/gree.mp3,./audio/culp.mp3,./audio/eder.mp3,0.0-27.0,16.781365079365,NULL,NULL,NULL,NULL,32,NULL,NULL,NULL,NULL,NULL,NULL,NULL,NULL,NULL,NULL,NULL,NULL,NULL,NULL,NULL,NULL,NULL,NULL,NULL,NULL,NULL,NULL,NULL,NULL,NULL,psychophysics,NULL,NULL,NULL,NULL,NULL,NULL,NULL,NULL,NULL,NULL,NULL,NULL,NULL,NULL,NULL,NULL,NULL,NULL
47785,02/29/2020,28,1,train1,NULL,mixed,NULL,,"<div style="font-size:60px;">+</div>",153697,,NULL,NULL,NULL,NULL,NULL,NULL,NULL,NULL,NULL,NULL,NULL,NULL,NULL,NULL,NULL,NULL,NULL,NULL,NULL,NULL,NULL,NULL,0.0-28.0,NULL,NULL,NULL,NULL,NULL,NULL,NULL,NULL,NULL,NULL,NULL,NULL,NULL,NULL,NULL,NULL,NULL,NULL,NULL,NULL,NULL,NULL,NULL,NULL,NULL,NULL,NULL,NULL,NULL,NULL,NULL,html-button-response,NULL,NULL,NULL,NULL,NULL,NULL,NULL,NULL,NULL,NULL,NULL,NULL,NULL,NULL,NULL,NULL,NULL,NULL
47785,02/29/2020,29,1,train1,NULL,mixed,NULL,3756.4749999874,NULL,160056,NULL,NULL,NULL,NULL,NULL,NULL,NULL,NULL,NULL,NULL,NULL,NULL,NULL,key,img/clothes/sho1.jpg,img/dishware/mug2.jpg,img/insects/but1.jpg,NULL,NULL,NULL,./audio/eder.mp3,./audio/culp.mp3,./audio/hage.mp3,0.0-29.0,16.667,NULL,NULL,NULL,NULL,32,NULL,NULL,NULL,NULL,NULL,NULL,NULL,NULL,NULL,NULL,NULL,NULL,NULL,NULL,NULL,NULL,NULL,NULL,NULL,NULL,NULL,NULL,NULL,NULL,NULL,psychophysics,NULL,NULL,NULL,NULL,NULL,NULL,NULL,NULL,NULL,NULL,NULL,NULL,NULL,NULL,NULL,NULL,NULL,NULL
47785,02/29/2020,30,1,train1,NULL,mixed,NULL,,"<div style="font-size:60px;">+</div>",160311,,NULL,NULL,NULL,NULL,NULL,NULL,NULL,NULL,NULL,NULL,NULL,NULL,NULL,NULL,NULL,NULL,NULL,NULL,NULL,NULL,NULL,NULL,0.0-30.0,NULL,NULL,NULL,NULL,NULL,NULL,NULL,NULL,NULL,NULL,NULL,NULL,NULL,NULL,NULL,NULL,NULL,NULL,NULL,NULL,NULL,NULL,NULL,NULL,NULL,NULL,NULL,NULL,NULL,NULL,NULL,html-button-response,NULL,NULL,NULL,NULL,NULL,NULL,NULL,NULL,NULL,NULL,NULL,NULL,NULL,NULL,NULL,NULL,NULL,NULL
47785,02/29/2020,31,1,train1,NULL,mixed,NULL,4698.6100000067,NULL,167611,NULL,NULL,NULL,NULL,NULL,NULL,NULL,NULL,NULL,NULL,NULL,NULL,NULL,key,img/furniture/chair4.jpg,img/insects/but3.jpg,img/animals/dog5.jpg,NULL,NULL,NULL,./audio/coodle.mp3,./audio/gree.mp3,./audio/eder.mp3,0.0-31.0,16.668255707763,NULL,NULL,NULL,NULL,32,NULL,NULL,NULL,NULL,NULL,NULL,NULL,NULL,NULL,NULL,NULL,NULL,NULL,NULL,NULL,NULL,NULL,NULL,NULL,NULL,NULL,NULL,NULL,NULL,NULL,psychophysics,NULL,NULL,NULL,NULL,NULL,NULL,NULL,NULL,NULL,NULL,NULL,NULL,NULL,NULL,NULL,NULL,NULL,NULL
47785,02/29/2020,32,1,train1,NULL,mixed,NULL,,"<div style="font-size:60px;">+</div>",167863,,NULL,NULL,NULL,NULL,NULL,NULL,NULL,NULL,NULL,NULL,NULL,NULL,NULL,NULL,NULL,NULL,NULL,NULL,NULL,NULL,NULL,NULL,0.0-32.0,NULL,NULL,NULL,NULL,NULL,NULL,NULL,NULL,NULL,NULL,NULL,NULL,NULL,NULL,NULL,NULL,NULL,NULL,NULL,NULL,NULL,NULL,NULL,NULL,NULL,NULL,NULL,NULL,NULL,NULL,NULL,html-button-response,NULL,NULL,NULL,NULL,NULL,NULL,NULL,NULL,NULL,NULL,NULL,NULL,NULL,NULL,NULL,NULL,NULL,NULL
47785,02/29/2020,33,1,train1,NULL,mixed,NULL,3984.5800000039,NULL,174450,NULL,NULL,NULL,NULL,NULL,NULL,NULL,NULL,NULL,NULL,NULL,NULL,NULL,key,img/furniture/chair2.jpg,img/dishware/cup2.jpg,img/insects/but4.jpg,NULL,NULL,NULL,./audio/gree.mp3,./audio/culp.mp3,./audio/eder.mp3,0.0-33.0,16.668220253165,NULL,NULL,NULL,NULL,32,NULL,NULL,NULL,NULL,NULL,NULL,NULL,NULL,NULL,NULL,NULL,NULL,NULL,NULL,NULL,NULL,NULL,NULL,NULL,NULL,NULL,NULL,NULL,NULL,NULL,psychophysics,NULL,NULL,NULL,NULL,NULL,NULL,NULL,NULL,NULL,NULL,NULL,NULL,NULL,NULL,NULL,NULL,NULL,NULL
47785,02/29/2020,34,1,train1,NULL,mixed,NULL,,"<div style="font-size:60px;">+</div>",174702,,NULL,NULL,NULL,NULL,NULL,NULL,NULL,NULL,NULL,NULL,NULL,NULL,NULL,NULL,NULL,NULL,NULL,NULL,NULL,NULL,NULL,NULL,0.0-34.0,NULL,NULL,NULL,NULL,NULL,NULL,NULL,NULL,NULL,NULL,NULL,NULL,NULL,NULL,NULL,NULL,NULL,NULL,NULL,NULL,NULL,NULL,NULL,NULL,NULL,NULL,NULL,NULL,NULL,NULL,NULL,html-button-response,NULL,NULL,NULL,NULL,NULL,NULL,NULL,NULL,NULL,NULL,NULL,NULL,NULL,NULL,NULL,NULL,NULL,NULL
47785,02/29/2020,35,1,train1,NULL,mixed,NULL,5685.4149999999,NULL,182991,NULL,NULL,NULL,NULL,NULL,NULL,NULL,NULL,NULL,NULL,NULL,NULL,NULL,key,img/dishware/mug2.jpg,img/cars/car6.jpg,img/animals/dog4.jpg,NULL,NULL,NULL,./audio/agen.mp3,./audio/coodle.mp3,./audio/culp.mp3,0.0-35.0,16.701602822581,NULL,NULL,NULL,NULL,32,NULL,NULL,NULL,NULL,NULL,NULL,NULL,NULL,NULL,NULL,NULL,NULL,NULL,NULL,NULL,NULL,NULL,NULL,NULL,NULL,NULL,NULL,NULL,NULL,NULL,psychophysics,NULL,NULL,NULL,NULL,NULL,NULL,NULL,NULL,NULL,NULL,NULL,NULL,NULL,NULL,NULL,NULL,NULL,NULL
47785,02/29/2020,36,1,train1,NULL,mixed,NULL,,"<div style="font-size:60px;">+</div>",183247,,NULL,NULL,NULL,NULL,NULL,NULL,NULL,NULL,NULL,NULL,NULL,NULL,NULL,NULL,NULL,NULL,NULL,NULL,NULL,NULL,NULL,NULL,0.0-36.0,NULL,NULL,NULL,NULL,NULL,NULL,NULL,NULL,NULL,NULL,NULL,NULL,NULL,NULL,NULL,NULL,NULL,NULL,NULL,NULL,NULL,NULL,NULL,NULL,NULL,NULL,NULL,NULL,NULL,NULL,NULL,html-button-response,NULL,NULL,NULL,NULL,NULL,NULL,NULL,NULL,NULL,NULL,NULL,NULL,NULL,NULL,NULL,NULL,NULL,NULL
47785,02/29/2020,37,1,train1,NULL,mixed,NULL,4358.0000000075,NULL,190206,NULL,NULL,NULL,NULL,NULL,NULL,NULL,NULL,NULL,NULL,NULL,NULL,NULL,key,img/clothes/sho1.jpg,img/furniture/chair3.jpg,img/insects/but1.jpg,NULL,NULL,NULL,./audio/eder.mp3,./audio/gree.mp3,./audio/hage.mp3,0.0-37.0,16.707064903846,NULL,NULL,NULL,NULL,32,NULL,NULL,NULL,NULL,NULL,NULL,NULL,NULL,NULL,NULL,NULL,NULL,NULL,NULL,NULL,NULL,NULL,NULL,NULL,NULL,NULL,NULL,NULL,NULL,NULL,psychophysics,NULL,NULL,NULL,NULL,NULL,NULL,NULL,NULL,NULL,NULL,NULL,NULL,NULL,NULL,NULL,NULL,NULL,NULL
47785,02/29/2020,38,1,train1,NULL,mixed,NULL,,"<div style="font-size:60px;">+</div>",190457,,NULL,NULL,NULL,NULL,NULL,NULL,NULL,NULL,NULL,NULL,NULL,NULL,NULL,NULL,NULL,NULL,NULL,NULL,NULL,NULL,NULL,NULL,0.0-38.0,NULL,NULL,NULL,NULL,NULL,NULL,NULL,NULL,NULL,NULL,NULL,NULL,NULL,NULL,NULL,NULL,NULL,NULL,NULL,NULL,NULL,NULL,NULL,NULL,NULL,NULL,NULL,NULL,NULL,NULL,NULL,html-button-response,NULL,NULL,NULL,NULL,NULL,NULL,NULL,NULL,NULL,NULL,NULL,NULL,NULL,NULL,NULL,NULL,NULL,NULL
47785,02/29/2020,39,1,train1,NULL,mixed,NULL,4188.9399999927,NULL,197248,NULL,NULL,NULL,NULL,NULL,NULL,NULL,NULL,NULL,NULL,NULL,NULL,NULL,key,img/animals/dog2.jpg,img/clothes/sho2.jpg,img/furniture/chair2.jpg,NULL,NULL,NULL,./audio/hage.mp3,./audio/gree.mp3,./audio/coodle.mp3,0.0-39.0,16.668196560197,NULL,NULL,NULL,NULL,32,NULL,NULL,NULL,NULL,NULL,NULL,NULL,NULL,NULL,NULL,NULL,NULL,NULL,NULL,NULL,NULL,NULL,NULL,NULL,NULL,NULL,NULL,NULL,NULL,NULL,psychophysics,NULL,NULL,NULL,NULL,NULL,NULL,NULL,NULL,NULL,NULL,NULL,NULL,NULL,NULL,NULL,NULL,NULL,NULL
47785,02/29/2020,40,1,train1,NULL,mixed,NULL,,"<div style="font-size:60px;">+</div>",197502,,NULL,NULL,NULL,NULL,NULL,NULL,NULL,NULL,NULL,NULL,NULL,NULL,NULL,NULL,NULL,NULL,NULL,NULL,NULL,NULL,NULL,NULL,0.0-40.0,NULL,NULL,NULL,NULL,NULL,NULL,NULL,NULL,NULL,NULL,NULL,NULL,NULL,NULL,NULL,NULL,NULL,NULL,NULL,NULL,NULL,NULL,NULL,NULL,NULL,NULL,NULL,NULL,NULL,NULL,NULL,html-button-response,NULL,NULL,NULL,NULL,NULL,NULL,NULL,NULL,NULL,NULL,NULL,NULL,NULL,NULL,NULL,NULL,NULL,NULL
47785,02/29/2020,41,1,train1,NULL,mixed,NULL,6444.4000000076,NULL,206550,NULL,NULL,NULL,NULL,NULL,NULL,NULL,NULL,NULL,NULL,NULL,NULL,NULL,key,img/clothes/sho6.jpg,img/furniture/chair2.jpg,img/dishware/cup1.jpg,NULL,NULL,NULL,./audio/gree.mp3,./audio/hage.mp3,./audio/culp.mp3,0.0-41.0,16.698673431734,NULL,NULL,NULL,NULL,32,NULL,NULL,NULL,NULL,NULL,NULL,NULL,NULL,NULL,NULL,NULL,NULL,NULL,NULL,NULL,NULL,NULL,NULL,NULL,NULL,NULL,NULL,NULL,NULL,NULL,psychophysics,NULL,NULL,NULL,NULL,NULL,NULL,NULL,NULL,NULL,NULL,NULL,NULL,NULL,NULL,NULL,NULL,NULL,NULL
47785,02/29/2020,42,1,train1,NULL,mixed,NULL,,"<div style="font-size:60px;">+</div>",206804,,NULL,NULL,NULL,NULL,NULL,NULL,NULL,NULL,NULL,NULL,NULL,NULL,NULL,NULL,NULL,NULL,NULL,NULL,NULL,NULL,NULL,NULL,0.0-42.0,NULL,NULL,NULL,NULL,NULL,NULL,NULL,NULL,NULL,NULL,NULL,NULL,NULL,NULL,NULL,NULL,NULL,NULL,NULL,NULL,NULL,NULL,NULL,NULL,NULL,NULL,NULL,NULL,NULL,NULL,NULL,html-button-response,NULL,NULL,NULL,NULL,NULL,NULL,NULL,NULL,NULL,NULL,NULL,NULL,NULL,NULL,NULL,NULL,NULL,NULL
47785,02/29/2020,43,1,train1,NULL,mixed,NULL,7208.8249999942,NULL,216614,NULL,NULL,NULL,NULL,NULL,NULL,NULL,NULL,NULL,NULL,NULL,NULL,NULL,key,img/insects/but3.jpg,img/animals/dog2.jpg,img/cars/car5.jpg,NULL,NULL,NULL,./audio/agen.mp3,./audio/coodle.mp3,./audio/eder.mp3,0.0-43.0,16.696180272109,NULL,NULL,NULL,NULL,32,NULL,NULL,NULL,NULL,NULL,NULL,NULL,NULL,NULL,NULL,NULL,NULL,NULL,NULL,NULL,NULL,NULL,NULL,NULL,NULL,NULL,NULL,NULL,NULL,NULL,psychophysics,NULL,NULL,NULL,NULL,NULL,NULL,NULL,NULL,NULL,NULL,NULL,NULL,NULL,NULL,NULL,NULL,NULL,NULL
47785,02/29/2020,44,1,train1,NULL,mixed,NULL,,"<div style="font-size:60px;">+</div>",216869,,NULL,NULL,NULL,NULL,NULL,NULL,NULL,NULL,NULL,NULL,NULL,NULL,NULL,NULL,NULL,NULL,NULL,NULL,NULL,NULL,NULL,NULL,0.0-44.0,NULL,NULL,NULL,NULL,NULL,NULL,NULL,NULL,NULL,NULL,NULL,NULL,NULL,NULL,NULL,NULL,NULL,NULL,NULL,NULL,NULL,NULL,NULL,NULL,NULL,NULL,NULL,NULL,NULL,NULL,NULL,html-button-response,NULL,NULL,NULL,NULL,NULL,NULL,NULL,NULL,NULL,NULL,NULL,NULL,NULL,NULL,NULL,NULL,NULL,NULL
47785,02/29/2020,45,1,train1,NULL,mixed,NULL,4626.7599999992,NULL,224098,NULL,NULL,NULL,NULL,NULL,NULL,NULL,NULL,NULL,NULL,NULL,NULL,NULL,key,img/clothes/sho5.jpg,img/dishware/cup3.jpg,img/cars/car3.jpg,NULL,NULL,NULL,./audio/hage.mp3,./audio/agen.mp3,./audio/culp.mp3,0.0-45.0,16.668099078341,NULL,NULL,NULL,NULL,32,NULL,NULL,NULL,NULL,NULL,NULL,NULL,NULL,NULL,NULL,NULL,NULL,NULL,NULL,NULL,NULL,NULL,NULL,NULL,NULL,NULL,NULL,NULL,NULL,NULL,psychophysics,NULL,NULL,NULL,NULL,NULL,NULL,NULL,NULL,NULL,NULL,NULL,NULL,NULL,NULL,NULL,NULL,NULL,NULL
47785,02/29/2020,46,1,train1,NULL,mixed,NULL,,"<div style="font-size:60px;">+</div>",224352,,NULL,NULL,NULL,NULL,NULL,NULL,NULL,NULL,NULL,NULL,NULL,NULL,NULL,NULL,NULL,NULL,NULL,NULL,NULL,NULL,NULL,NULL,0.0-46.0,NULL,NULL,NULL,NULL,NULL,NULL,NULL,NULL,NULL,NULL,NULL,NULL,NULL,NULL,NULL,NULL,NULL,NULL,NULL,NULL,NULL,NULL,NULL,NULL,NULL,NULL,NULL,NULL,NULL,NULL,NULL,html-button-response,NULL,NULL,NULL,NULL,NULL,NULL,NULL,NULL,NULL,NULL,NULL,NULL,NULL,NULL,NULL,NULL,NULL,NULL
47785,02/29/2020,47,1,train1,NULL,mixed,NULL,4003.9150000084,NULL,230958,NULL,NULL,NULL,NULL,NULL,NULL,NULL,NULL,NULL,NULL,NULL,NULL,NULL,key,img/furniture/chair6.jpg,img/animals/dog4.jpg,img/cars/car5.jpg,NULL,NULL,NULL,./audio/agen.mp3,./audio/gree.mp3,./audio/coodle.mp3,0.0-47.0,16.667,NULL,NULL,NULL,NULL,32,NULL,NULL,NULL,NULL,NULL,NULL,NULL,NULL,NULL,NULL,NULL,NULL,NULL,NULL,NULL,NULL,NULL,NULL,NULL,NULL,NULL,NULL,NULL,NULL,NULL,psychophysics,NULL,NULL,NULL,NULL,NULL,NULL,NULL,NULL,NULL,NULL,NULL,NULL,NULL,NULL,NULL,NULL,NULL,NULL
47785,02/29/2020,48,1,train1,NULL,mixed,NULL,,"<div style="font-size:60px;">+</div>",231209,,NULL,NULL,NULL,NULL,NULL,NULL,NULL,NULL,NULL,NULL,NULL,NULL,NULL,NULL,NULL,NULL,NULL,NULL,NULL,NULL,NULL,NULL,0.0-48.0,NULL,NULL,NULL,NULL,NULL,NULL,NULL,NULL,NULL,NULL,NULL,NULL,NULL,NULL,NULL,NULL,NULL,NULL,NULL,NULL,NULL,NULL,NULL,NULL,NULL,NULL,NULL,NULL,NULL,NULL,NULL,html-button-response,NULL,NULL,NULL,NULL,NULL,NULL,NULL,NULL,NULL,NULL,NULL,NULL,NULL,NULL,NULL,NULL,NULL,NULL
47785,02/29/2020,49,1,train1,NULL,mixed,NULL,3310.9850000037,NULL,237123,NULL,NULL,NULL,NULL,NULL,NULL,NULL,NULL,NULL,NULL,NULL,NULL,NULL,key,img/clothes/sho2.jpg,img/dishware/cup1.jpg,img/animals/dog2.jpg,NULL,NULL,NULL,./audio/coodle.mp3,./audio/culp.mp3,./audio/hage.mp3,0.0-49.0,16.715491525424,NULL,NULL,NULL,NULL,32,NULL,NULL,NULL,NULL,NULL,NULL,NULL,NULL,NULL,NULL,NULL,NULL,NULL,NULL,NULL,NULL,NULL,NULL,NULL,NULL,NULL,NULL,NULL,NULL,NULL,psychophysics,NULL,NULL,NULL,NULL,NULL,NULL,NULL,NULL,NULL,NULL,NULL,NULL,NULL,NULL,NULL,NULL,NULL,NULL
47785,02/29/2020,50,1,train1,NULL,mixed,NULL,,"<div style="font-size:60px;">+</div>",237374,,NULL,NULL,NULL,NULL,NULL,NULL,NULL,NULL,NULL,NULL,NULL,NULL,NULL,NULL,NULL,NULL,NULL,NULL,NULL,NULL,NULL,NULL,0.0-50.0,NULL,NULL,NULL,NULL,NULL,NULL,NULL,NULL,NULL,NULL,NULL,NULL,NULL,NULL,NULL,NULL,NULL,NULL,NULL,NULL,NULL,NULL,NULL,NULL,NULL,NULL,NULL,NULL,NULL,NULL,NULL,html-button-response,NULL,NULL,NULL,NULL,NULL,NULL,NULL,NULL,NULL,NULL,NULL,NULL,NULL,NULL,NULL,NULL,NULL,NULL
47785,02/29/2020,51,1,train1,NULL,mixed,NULL,3433.315000002,NULL,243409,NULL,NULL,NULL,NULL,NULL,NULL,NULL,NULL,NULL,NULL,NULL,NULL,NULL,key,img/clothes/sho2.jpg,img/insects/but3.jpg,img/cars/car5.jpg,NULL,NULL,NULL,./audio/hage.mp3,./audio/agen.mp3,./audio/eder.mp3,0.0-51.0,16.71440166205,NULL,NULL,NULL,NULL,32,NULL,NULL,NULL,NULL,NULL,NULL,NULL,NULL,NULL,NULL,NULL,NULL,NULL,NULL,NULL,NULL,NULL,NULL,NULL,NULL,NULL,NULL,NULL,NULL,NULL,psychophysics,NULL,NULL,NULL,NULL,NULL,NULL,NULL,NULL,NULL,NULL,NULL,NULL,NULL,NULL,NULL,NULL,NULL,NULL
47785,02/29/2020,52,1,train1,NULL,mixed,NULL,,"<div style="font-size:60px;">+</div>",243661,,NULL,NULL,NULL,NULL,NULL,NULL,NULL,NULL,NULL,NULL,NULL,NULL,NULL,NULL,NULL,NULL,NULL,NULL,NULL,NULL,NULL,NULL,0.0-52.0,NULL,NULL,NULL,NULL,NULL,NULL,NULL,NULL,NULL,NULL,NULL,NULL,NULL,NULL,NULL,NULL,NULL,NULL,NULL,NULL,NULL,NULL,NULL,NULL,NULL,NULL,NULL,NULL,NULL,NULL,NULL,html-button-response,NULL,NULL,NULL,NULL,NULL,NULL,NULL,NULL,NULL,NULL,NULL,NULL,NULL,NULL,NULL,NULL,NULL,NULL
47785,02/29/2020,53,1,train1,NULL,mixed,NULL,3399.0599999961,NULL,249662,NULL,NULL,NULL,NULL,NULL,NULL,NULL,NULL,NULL,NULL,NULL,NULL,NULL,key,img/dishware/cup1.jpg,img/furniture/chair3.jpg,img/animals/dog2.jpg,NULL,NULL,NULL,./audio/gree.mp3,./audio/coodle.mp3,./audio/culp.mp3,0.0-53.0,16.713426183844,NULL,NULL,NULL,NULL,32,NULL,NULL,NULL,NULL,NULL,NULL,NULL,NULL,NULL,NULL,NULL,NULL,NULL,NULL,NULL,NULL,NULL,NULL,NULL,NULL,NULL,NULL,NULL,NULL,NULL,psychophysics,NULL,NULL,NULL,NULL,NULL,NULL,NULL,NULL,NULL,NULL,NULL,NULL,NULL,NULL,NULL,NULL,NULL,NULL
47785,02/29/2020,54,1,train1,NULL,mixed,NULL,,"<div style="font-size:60px;">+</div>",249918,,NULL,NULL,NULL,NULL,NULL,NULL,NULL,NULL,NULL,NULL,NULL,NULL,NULL,NULL,NULL,NULL,NULL,NULL,NULL,NULL,NULL,NULL,0.0-54.0,NULL,NULL,NULL,NULL,NULL,NULL,NULL,NULL,NULL,NULL,NULL,NULL,NULL,NULL,NULL,NULL,NULL,NULL,NULL,NULL,NULL,NULL,NULL,NULL,NULL,NULL,NULL,NULL,NULL,NULL,NULL,html-button-response,NULL,NULL,NULL,NULL,NULL,NULL,NULL,NULL,NULL,NULL,NULL,NULL,NULL,NULL,NULL,NULL,NULL,NULL
47785,02/29/2020,55,1,train1,NULL,mixed,NULL,3263.9550000022,NULL,255784,NULL,NULL,NULL,NULL,NULL,NULL,NULL,NULL,NULL,NULL,NULL,NULL,NULL,key,img/cars/car5.jpg,img/furniture/chair3.jpg,img/clothes/sho5.jpg,NULL,NULL,NULL,./audio/gree.mp3,./audio/hage.mp3,./audio/agen.mp3,0.0-55.0,16.668505681818,NULL,NULL,NULL,NULL,32,NULL,NULL,NULL,NULL,NULL,NULL,NULL,NULL,NULL,NULL,NULL,NULL,NULL,NULL,NULL,NULL,NULL,NULL,NULL,NULL,NULL,NULL,NULL,NULL,NULL,psychophysics,NULL,NULL,NULL,NULL,NULL,NULL,NULL,NULL,NULL,NULL,NULL,NULL,NULL,NULL,NULL,NULL,NULL,NULL
47785,02/29/2020,56,1,train1,NULL,mixed,NULL,,"<div style="font-size:60px;">+</div>",256036,,NULL,NULL,NULL,NULL,NULL,NULL,NULL,NULL,NULL,NULL,NULL,NULL,NULL,NULL,NULL,NULL,NULL,NULL,NULL,NULL,NULL,NULL,0.0-56.0,NULL,NULL,NULL,NULL,NULL,NULL,NULL,NULL,NULL,NULL,NULL,NULL,NULL,NULL,NULL,NULL,NULL,NULL,NULL,NULL,NULL,NULL,NULL,NULL,NULL,NULL,NULL,NULL,NULL,NULL,NULL,html-button-response,NULL,NULL,NULL,NULL,NULL,NULL,NULL,NULL,NULL,NULL,NULL,NULL,NULL,NULL,NULL,NULL,NULL,NULL
47785,02/29/2020,57,1,train1,NULL,mixed,NULL,4639.0550000069,NULL,263277,NULL,NULL,NULL,NULL,NULL,NULL,NULL,NULL,NULL,NULL,NULL,NULL,NULL,key,img/cars/car4.jpg,img/animals/dog5.jpg,img/clothes/sho2.jpg,NULL,NULL,NULL,./audio/agen.mp3,./audio/coodle.mp3,./audio/hage.mp3,0.0-57.0,16.668,NULL,NULL,NULL,NULL,32,NULL,NULL,NULL,NULL,NULL,NULL,NULL,NULL,NULL,NULL,NULL,NULL,NULL,NULL,NULL,NULL,NULL,NULL,NULL,NULL,NULL,NULL,NULL,NULL,NULL,psychophysics,NULL,NULL,NULL,NULL,NULL,NULL,NULL,NULL,NULL,NULL,NULL,NULL,NULL,NULL,NULL,NULL,NULL,NULL
47785,02/29/2020,58,1,train1,NULL,mixed,NULL,,"<div style="font-size:60px;">+</div>",263532,,NULL,NULL,NULL,NULL,NULL,NULL,NULL,NULL,NULL,NULL,NULL,NULL,NULL,NULL,NULL,NULL,NULL,NULL,NULL,NULL,NULL,NULL,0.0-58.0,NULL,NULL,NULL,NULL,NULL,NULL,NULL,NULL,NULL,NULL,NULL,NULL,NULL,NULL,NULL,NULL,NULL,NULL,NULL,NULL,NULL,NULL,NULL,NULL,NULL,NULL,NULL,NULL,NULL,NULL,NULL,html-button-response,NULL,NULL,NULL,NULL,NULL,NULL,NULL,NULL,NULL,NULL,NULL,NULL,NULL,NULL,NULL,NULL,NULL,NULL
47785,02/29/2020,59,1,train1,NULL,mixed,NULL,3795.2499999956,NULL,269929,NULL,NULL,NULL,NULL,NULL,NULL,NULL,NULL,NULL,NULL,NULL,NULL,NULL,key,img/furniture/chair3.jpg,img/insects/but1.jpg,img/animals/dog2.jpg,NULL,NULL,NULL,./audio/coodle.mp3,./audio/gree.mp3,./audio/eder.mp3,0.0-59.0,16.667,NULL,NULL,NULL,NULL,32,NULL,NULL,NULL,NULL,NULL,NULL,NULL,NULL,NULL,NULL,NULL,NULL,NULL,NULL,NULL,NULL,NULL,NULL,NULL,NULL,NULL,NULL,NULL,NULL,NULL,psychophysics,NULL,NULL,NULL,NULL,NULL,NULL,NULL,NULL,NULL,NULL,NULL,NULL,NULL,NULL,NULL,NULL,NULL,NULL
47785,02/29/2020,60,1,train1,NULL,mixed,NULL,,"<div style="font-size:60px;">+</div>",270184,,NULL,NULL,NULL,NULL,NULL,NULL,NULL,NULL,NULL,NULL,NULL,NULL,NULL,NULL,NULL,NULL,NULL,NULL,NULL,NULL,NULL,NULL,0.0-60.0,NULL,NULL,NULL,NULL,NULL,NULL,NULL,NULL,NULL,NULL,NULL,NULL,NULL,NULL,NULL,NULL,NULL,NULL,NULL,NULL,NULL,NULL,NULL,NULL,NULL,NULL,NULL,NULL,NULL,NULL,NULL,html-button-response,NULL,NULL,NULL,NULL,NULL,NULL,NULL,NULL,NULL,NULL,NULL,NULL,NULL,NULL,NULL,NULL,NULL,NULL
47785,02/29/2020,61,1,train1,NULL,mixed,NULL,3259.7249999963,NULL,276045,NULL,NULL,NULL,NULL,NULL,NULL,NULL,NULL,NULL,NULL,NULL,NULL,NULL,key,img/insects/but3.jpg,img/furniture/chair3.jpg,img/cars/car6.jpg,NULL,NULL,NULL,./audio/agen.mp3,./audio/gree.mp3,./audio/eder.mp3,0.0-61.0,16.668558404558,NULL,NULL,NULL,NULL,32,NULL,NULL,NULL,NULL,NULL,NULL,NULL,NULL,NULL,NULL,NULL,NULL,NULL,NULL,NULL,NULL,NULL,NULL,NULL,NULL,NULL,NULL,NULL,NULL,NULL,psychophysics,NULL,NULL,NULL,NULL,NULL,NULL,NULL,NULL,NULL,NULL,NULL,NULL,NULL,NULL,NULL,NULL,NULL,NULL
47785,02/29/2020,62,1,train1,NULL,mixed,NULL,,"<div style="font-size:60px;">+</div>",276298,,NULL,NULL,NULL,NULL,NULL,NULL,NULL,NULL,NULL,NULL,NULL,NULL,NULL,NULL,NULL,NULL,NULL,NULL,NULL,NULL,NULL,NULL,0.0-62.0,NULL,NULL,NULL,NULL,NULL,NULL,NULL,NULL,NULL,NULL,NULL,NULL,NULL,NULL,NULL,NULL,NULL,NULL,NULL,NULL,NULL,NULL,NULL,NULL,NULL,NULL,NULL,NULL,NULL,NULL,NULL,html-button-response,NULL,NULL,NULL,NULL,NULL,NULL,NULL,NULL,NULL,NULL,NULL,NULL,NULL,NULL,NULL,NULL,NULL,NULL
47785,02/29/2020,63,1,train1,NULL,mixed,NULL,2729.2549999984,NULL,281629,NULL,NULL,NULL,NULL,NULL,NULL,NULL,NULL,NULL,NULL,NULL,NULL,NULL,key,img/furniture/chair3.jpg,img/cars/car6.jpg,img/animals/dog2.jpg,NULL,NULL,NULL,./audio/gree.mp3,./audio/agen.mp3,./audio/coodle.mp3,0.0-63.0,16.668272727273,NULL,NULL,NULL,NULL,32,NULL,NULL,NULL,NULL,NULL,NULL,NULL,NULL,NULL,NULL,NULL,NULL,NULL,NULL,NULL,NULL,NULL,NULL,NULL,NULL,NULL,NULL,NULL,NULL,NULL,psychophysics,NULL,NULL,NULL,NULL,NULL,NULL,NULL,NULL,NULL,NULL,NULL,NULL,NULL,NULL,NULL,NULL,NULL,NULL
47785,02/29/2020,64,1,train1,NULL,mixed,NULL,,"<div style="font-size:60px;">+</div>",281884,,NULL,NULL,NULL,NULL,NULL,NULL,NULL,NULL,NULL,NULL,NULL,NULL,NULL,NULL,NULL,NULL,NULL,NULL,NULL,NULL,NULL,NULL,0.0-64.0,NULL,NULL,NULL,NULL,NULL,NULL,NULL,NULL,NULL,NULL,NULL,NULL,NULL,NULL,NULL,NULL,NULL,NULL,NULL,NULL,NULL,NULL,NULL,NULL,NULL,NULL,NULL,NULL,NULL,NULL,NULL,html-button-response,NULL,NULL,NULL,NULL,NULL,NULL,NULL,NULL,NULL,NULL,NULL,NULL,NULL,NULL,NULL,NULL,NULL,NULL
47785,02/29/2020,65,1,train1,NULL,mixed,NULL,5605.9950000054,NULL,290091,NULL,NULL,NULL,NULL,NULL,NULL,NULL,NULL,NULL,NULL,NULL,NULL,NULL,key,img/dishware/cup2.jpg,img/cars/car6.jpg,img/clothes/sho1.jpg,NULL,NULL,NULL,./audio/agen.mp3,./audio/hage.mp3,./audio/culp.mp3,0.0-65.0,16.735028571429,NULL,NULL,NULL,NULL,32,NULL,NULL,NULL,NULL,NULL,NULL,NULL,NULL,NULL,NULL,NULL,NULL,NULL,NULL,NULL,NULL,NULL,NULL,NULL,NULL,NULL,NULL,NULL,NULL,NULL,psychophysics,NULL,NULL,NULL,NULL,NULL,NULL,NULL,NULL,NULL,NULL,NULL,NULL,NULL,NULL,NULL,NULL,NULL,NULL
47785,02/29/2020,66,1,train1,NULL,mixed,NULL,,"<div style="font-size:60px;">+</div>",290346,,NULL,NULL,NULL,NULL,NULL,NULL,NULL,NULL,NULL,NULL,NULL,NULL,NULL,NULL,NULL,NULL,NULL,NULL,NULL,NULL,NULL,NULL,0.0-66.0,NULL,NULL,NULL,NULL,NULL,NULL,NULL,NULL,NULL,NULL,NULL,NULL,NULL,NULL,NULL,NULL,NULL,NULL,NULL,NULL,NULL,NULL,NULL,NULL,NULL,NULL,NULL,NULL,NULL,NULL,NULL,html-button-response,NULL,NULL,NULL,NULL,NULL,NULL,NULL,NULL,NULL,NULL,NULL,NULL,NULL,NULL,NULL,NULL,NULL,NULL
47785,02/29/2020,67,1,train1,NULL,mixed,NULL,4084.9199999939,NULL,297034,NULL,NULL,NULL,NULL,NULL,NULL,NULL,NULL,NULL,NULL,NULL,NULL,NULL,key,img/cars/car6.jpg,img/dishware/mug2.jpg,img/furniture/chair6.jpg,NULL,NULL,NULL,./audio/culp.mp3,./audio/gree.mp3,./audio/agen.mp3,0.0-67.0,16.7101625,NULL,NULL,NULL,NULL,32,NULL,NULL,NULL,NULL,NULL,NULL,NULL,NULL,NULL,NULL,NULL,NULL,NULL,NULL,NULL,NULL,NULL,NULL,NULL,NULL,NULL,NULL,NULL,NULL,NULL,psychophysics,NULL,NULL,NULL,NULL,NULL,NULL,NULL,NULL,NULL,NULL,NULL,NULL,NULL,NULL,NULL,NULL,NULL,NULL
47785,02/29/2020,68,1,train1,NULL,mixed,NULL,,"<div style="font-size:60px;">+</div>",297289,,NULL,NULL,NULL,NULL,NULL,NULL,NULL,NULL,NULL,NULL,NULL,NULL,NULL,NULL,NULL,NULL,NULL,NULL,NULL,NULL,NULL,NULL,0.0-68.0,NULL,NULL,NULL,NULL,NULL,NULL,NULL,NULL,NULL,NULL,NULL,NULL,NULL,NULL,NULL,NULL,NULL,NULL,NULL,NULL,NULL,NULL,NULL,NULL,NULL,NULL,NULL,NULL,NULL,NULL,NULL,html-button-response,NULL,NULL,NULL,NULL,NULL,NULL,NULL,NULL,NULL,NULL,NULL,NULL,NULL,NULL,NULL,NULL,NULL,NULL
47785,02/29/2020,69,1,train1,NULL,mixed,NULL,4017.8199999937,NULL,303909,NULL,NULL,NULL,NULL,NULL,NULL,NULL,NULL,NULL,NULL,NULL,NULL,NULL,key,img/insects/but3.jpg,img/animals/dog5.jpg,img/dishware/cup2.jpg,NULL,NULL,NULL,./audio/eder.mp3,./audio/culp.mp3,./audio/coodle.mp3,0.0-69.0,16.668073047859,NULL,NULL,NULL,NULL,32,NULL,NULL,NULL,NULL,NULL,NULL,NULL,NULL,NULL,NULL,NULL,NULL,NULL,NULL,NULL,NULL,NULL,NULL,NULL,NULL,NULL,NULL,NULL,NULL,NULL,psychophysics,NULL,NULL,NULL,NULL,NULL,NULL,NULL,NULL,NULL,NULL,NULL,NULL,NULL,NULL,NULL,NULL,NULL,NULL
47785,02/29/2020,70,1,train1,NULL,mixed,NULL,,"<div style="font-size:60px;">+</div>",304163,,NULL,NULL,NULL,NULL,NULL,NULL,NULL,NULL,NULL,NULL,NULL,NULL,NULL,NULL,NULL,NULL,NULL,NULL,NULL,NULL,NULL,NULL,0.0-70.0,NULL,NULL,NULL,NULL,NULL,NULL,NULL,NULL,NULL,NULL,NULL,NULL,NULL,NULL,NULL,NULL,NULL,NULL,NULL,NULL,NULL,NULL,NULL,NULL,NULL,NULL,NULL,NULL,NULL,NULL,NULL,html-button-response,NULL,NULL,NULL,NULL,NULL,NULL,NULL,NULL,NULL,NULL,NULL,NULL,NULL,NULL,NULL,NULL,NULL,NULL
47785,02/29/2020,71,1,train1,NULL,mixed,NULL,3213.2599999895,NULL,309978,NULL,NULL,NULL,NULL,NULL,NULL,NULL,NULL,NULL,NULL,NULL,NULL,NULL,key,img/animals/dog5.jpg,img/furniture/chair3.jpg,img/dishware/cup3.jpg,NULL,NULL,NULL,./audio/gree.mp3,./audio/coodle.mp3,./audio/culp.mp3,0.0-71.0,16.667,NULL,NULL,NULL,NULL,32,NULL,NULL,NULL,NULL,NULL,NULL,NULL,NULL,NULL,NULL,NULL,NULL,NULL,NULL,NULL,NULL,NULL,NULL,NULL,NULL,NULL,NULL,NULL,NULL,NULL,psychophysics,NULL,NULL,NULL,NULL,NULL,NULL,NULL,NULL,NULL,NULL,NULL,NULL,NULL,NULL,NULL,NULL,NULL,NULL
47785,02/29/2020,72,1,train1,NULL,mixed,NULL,,"<div style="font-size:60px;">+</div>",310231,,NULL,NULL,NULL,NULL,NULL,NULL,NULL,NULL,NULL,NULL,NULL,NULL,NULL,NULL,NULL,NULL,NULL,NULL,NULL,NULL,NULL,NULL,0.0-72.0,NULL,NULL,NULL,NULL,NULL,NULL,NULL,NULL,NULL,NULL,NULL,NULL,NULL,NULL,NULL,NULL,NULL,NULL,NULL,NULL,NULL,NULL,NULL,NULL,NULL,NULL,NULL,NULL,NULL,NULL,NULL,html-button-response,NULL,NULL,NULL,NULL,NULL,NULL,NULL,NULL,NULL,NULL,NULL,NULL,NULL,NULL,NULL,NULL,NULL,NULL
47785,02/29/2020,73,1,train1,NULL,mixed,NULL,4049.5499999961,NULL,316882,NULL,NULL,NULL,NULL,NULL,NULL,NULL,NULL,NULL,NULL,NULL,NULL,NULL,key,img/clothes/sho1.jpg,img/insects/but4.jpg,img/furniture/chair3.jpg,NULL,NULL,NULL,./audio/gree.mp3,./audio/eder.mp3,./audio/hage.mp3,0.0-73.0,16.710263819095,NULL,NULL,NULL,NULL,32,NULL,NULL,NULL,NULL,NULL,NULL,NULL,NULL,NULL,NULL,NULL,NULL,NULL,NULL,NULL,NULL,NULL,NULL,NULL,NULL,NULL,NULL,NULL,NULL,NULL,psychophysics,NULL,NULL,NULL,NULL,NULL,NULL,NULL,NULL,NULL,NULL,NULL,NULL,NULL,NULL,NULL,NULL,NULL,NULL
47785,02/29/2020,74,1,train1,NULL,mixed,NULL,,"<div style="font-size:60px;">+</div>",317137,,NULL,NULL,NULL,NULL,NULL,NULL,NULL,NULL,NULL,NULL,NULL,NULL,NULL,NULL,NULL,NULL,NULL,NULL,NULL,NULL,NULL,NULL,0.0-74.0,NULL,NULL,NULL,NULL,NULL,NULL,NULL,NULL,NULL,NULL,NULL,NULL,NULL,NULL,NULL,NULL,NULL,NULL,NULL,NULL,NULL,NULL,NULL,NULL,NULL,NULL,NULL,NULL,NULL,NULL,NULL,html-button-response,NULL,NULL,NULL,NULL,NULL,NULL,NULL,NULL,NULL,NULL,NULL,NULL,NULL,NULL,NULL,NULL,NULL,NULL
47785,02/29/2020,75,1,train1,NULL,mixed,NULL,3299.3050000077,NULL,323039,NULL,NULL,NULL,NULL,NULL,NULL,NULL,NULL,NULL,NULL,NULL,NULL,NULL,key,img/insects/but3.jpg,img/furniture/chair3.jpg,img/cars/car4.jpg,NULL,NULL,NULL,./audio/agen.mp3,./audio/gree.mp3,./audio/eder.mp3,0.0-75.0,16.668327683616,NULL,NULL,NULL,NULL,32,NULL,NULL,NULL,NULL,NULL,NULL,NULL,NULL,NULL,NULL,NULL,NULL,NULL,NULL,NULL,NULL,NULL,NULL,NULL,NULL,NULL,NULL,NULL,NULL,NULL,psychophysics,NULL,NULL,NULL,NULL,NULL,NULL,NULL,NULL,NULL,NULL,NULL,NULL,NULL,NULL,NULL,NULL,NULL,NULL
47785,02/29/2020,76,1,train1,NULL,mixed,NULL,,"<div style="font-size:60px;">+</div>",323291,,NULL,NULL,NULL,NULL,NULL,NULL,NULL,NULL,NULL,NULL,NULL,NULL,NULL,NULL,NULL,NULL,NULL,NULL,NULL,NULL,NULL,NULL,0.0-76.0,NULL,NULL,NULL,NULL,NULL,NULL,NULL,NULL,NULL,NULL,NULL,NULL,NULL,NULL,NULL,NULL,NULL,NULL,NULL,NULL,NULL,NULL,NULL,NULL,NULL,NULL,NULL,NULL,NULL,NULL,NULL,html-button-response,NULL,NULL,NULL,NULL,NULL,NULL,NULL,NULL,NULL,NULL,NULL,NULL,NULL,NULL,NULL,NULL,NULL,NULL
47785,02/29/2020,77,1,train1,NULL,mixed,NULL,3718.6999999976,NULL,329611,NULL,NULL,NULL,NULL,NULL,NULL,NULL,NULL,NULL,NULL,NULL,NULL,NULL,key,img/cars/car5.jpg,img/insects/but1.jpg,img/animals/dog2.jpg,NULL,NULL,NULL,./audio/coodle.mp3,./audio/agen.mp3,./audio/eder.mp3,0.0-77.0,16.667,NULL,NULL,NULL,NULL,32,NULL,NULL,NULL,NULL,NULL,NULL,NULL,NULL,NULL,NULL,NULL,NULL,NULL,NULL,NULL,NULL,NULL,NULL,NULL,NULL,NULL,NULL,NULL,NULL,NULL,psychophysics,NULL,NULL,NULL,NULL,NULL,NULL,NULL,NULL,NULL,NULL,NULL,NULL,NULL,NULL,NULL,NULL,NULL,NULL
47785,02/29/2020,78,1,train1,NULL,mixed,NULL,,"<div style="font-size:60px;">+</div>",329862,,NULL,NULL,NULL,NULL,NULL,NULL,NULL,NULL,NULL,NULL,NULL,NULL,NULL,NULL,NULL,NULL,NULL,NULL,NULL,NULL,NULL,NULL,0.0-78.0,NULL,NULL,NULL,NULL,NULL,NULL,NULL,NULL,NULL,NULL,NULL,NULL,NULL,NULL,NULL,NULL,NULL,NULL,NULL,NULL,NULL,NULL,NULL,NULL,NULL,NULL,NULL,NULL,NULL,NULL,NULL,html-button-response,NULL,NULL,NULL,NULL,NULL,NULL,NULL,NULL,NULL,NULL,NULL,NULL,NULL,NULL,NULL,NULL,NULL,NULL
47785,02/29/2020,79,1,train1,NULL,mixed,NULL,3372.3500000051,NULL,335836,NULL,NULL,NULL,NULL,NULL,NULL,NULL,NULL,NULL,NULL,NULL,NULL,NULL,key,img/animals/dog4.jpg,img/insects/but5.jpg,img/clothes/sho5.jpg,NULL,NULL,NULL,./audio/coodle.mp3,./audio/eder.mp3,./audio/hage.mp3,0.0-79.0,16.668469273743,NULL,NULL,NULL,NULL,32,NULL,NULL,NULL,NULL,NULL,NULL,NULL,NULL,NULL,NULL,NULL,NULL,NULL,NULL,NULL,NULL,NULL,NULL,NULL,NULL,NULL,NULL,NULL,NULL,NULL,psychophysics,NULL,NULL,NULL,NULL,NULL,NULL,NULL,NULL,NULL,NULL,NULL,NULL,NULL,NULL,NULL,NULL,NULL,NULL
47785,02/29/2020,80,1,train1,NULL,mixed,NULL,,"<div style="font-size:60px;">+</div>",336090,,NULL,NULL,NULL,NULL,NULL,NULL,NULL,NULL,NULL,NULL,NULL,NULL,NULL,NULL,NULL,NULL,NULL,NULL,NULL,NULL,NULL,NULL,0.0-80.0,NULL,NULL,NULL,NULL,NULL,NULL,NULL,NULL,NULL,NULL,NULL,NULL,NULL,NULL,NULL,NULL,NULL,NULL,NULL,NULL,NULL,NULL,NULL,NULL,NULL,NULL,NULL,NULL,NULL,NULL,NULL,html-button-response,NULL,NULL,NULL,NULL,NULL,NULL,NULL,NULL,NULL,NULL,NULL,NULL,NULL,NULL,NULL,NULL,NULL,NULL
47785,02/29/2020,81,1,train1,NULL,mixed,NULL,3206.2199999928,NULL,341897,NULL,NULL,NULL,NULL,NULL,NULL,NULL,NULL,NULL,NULL,NULL,NULL,NULL,key,img/clothes/sho6.jpg,img/dishware/cup2.jpg,img/furniture/chair6.jpg,NULL,NULL,NULL,./audio/gree.mp3,./audio/culp.mp3,./audio/hage.mp3,0.0-81.0,16.668387931034,NULL,NULL,NULL,NULL,32,NULL,NULL,NULL,NULL,NULL,NULL,NULL,NULL,NULL,NULL,NULL,NULL,NULL,NULL,NULL,NULL,NULL,NULL,NULL,NULL,NULL,NULL,NULL,NULL,NULL,psychophysics,NULL,NULL,NULL,NULL,NULL,NULL,NULL,NULL,NULL,NULL,NULL,NULL,NULL,NULL,NULL,NULL,NULL,NULL
47785,02/29/2020,82,1,train1,NULL,mixed,NULL,,"<div style="font-size:60px;">+</div>",342152,,NULL,NULL,NULL,NULL,NULL,NULL,NULL,NULL,NULL,NULL,NULL,NULL,NULL,NULL,NULL,NULL,NULL,NULL,NULL,NULL,NULL,NULL,0.0-82.0,NULL,NULL,NULL,NULL,NULL,NULL,NULL,NULL,NULL,NULL,NULL,NULL,NULL,NULL,NULL,NULL,NULL,NULL,NULL,NULL,NULL,NULL,NULL,NULL,NULL,NULL,NULL,NULL,NULL,NULL,NULL,html-button-response,NULL,NULL,NULL,NULL,NULL,NULL,NULL,NULL,NULL,NULL,NULL,NULL,NULL,NULL,NULL,NULL,NULL,NULL
NULL,NULL,83,NULL,NULL,NULL,NULL,NULL,6727.0500000013,"You are about to being the 1st testing phase of the experiment. You will now see 6 images on the screen at once, and hear a single sound. Use your keyboard to quickly press the number that corresponds to the sound which was played.",348880,0,NULL,NULL,NULL,NULL,NULL,NULL,NULL,NULL,NULL,NULL,NULL,NULL,NULL,NULL,NULL,NULL,NULL,NULL,NULL,NULL,NULL,NULL,0.0-83.0,NULL,NULL,NULL,NULL,NULL,NULL,NULL,NULL,NULL,NULL,NULL,NULL,NULL,NULL,NULL,NULL,NULL,NULL,NULL,NULL,NULL,NULL,NULL,NULL,NULL,NULL,NULL,NULL,NULL,NULL,NULL,html-button-response,NULL,NULL,NULL,NULL,NULL,NULL,NULL,NULL,NULL,NULL,NULL,NULL,NULL,NULL,NULL,NULL,NULL,NULL
47785,02/29/2020,84,1,test1,NULL,mixed,test-repeat,2265.2149999922,NULL,352147,NULL,NULL,NULL,NULL,NULL,NULL,NULL,NULL,NULL,NULL,NULL,NULL,NULL,key,img/furniture/chair2.jpg,img/dishware/cup3.jpg,img/insects/but4.jpg,img/animals/dog4.jpg,img/cars/car6.jpg,img/clothes/sho5.jpg,NULL,NULL,NULL,0.0-84.0,16.669530612245,NULL,./audio/gree.mp3,furniture,3,51,NULL,NULL,NULL,NULL,NULL,NULL,NULL,NULL,NULL,NULL,NULL,NULL,NULL,NULL,NULL,NULL,NULL,NULL,NULL,NULL,NULL,NULL,NULL,NULL,NULL,psychophysics,NULL,NULL,NULL,NULL,NULL,NULL,NULL,NULL,NULL,NULL,NULL,NULL,NULL,NULL,NULL,NULL,NULL,NULL
47785,02/29/2020,85,1,train1,NULL,mixed,NULL,,"<div style="font-size:60px;">+</div>",352403,,NULL,NULL,NULL,NULL,NULL,NULL,NULL,NULL,NULL,NULL,NULL,NULL,NULL,NULL,NULL,NULL,NULL,NULL,NULL,NULL,NULL,NULL,0.0-85.0,NULL,NULL,NULL,NULL,NULL,NULL,NULL,NULL,NULL,NULL,NULL,NULL,NULL,NULL,NULL,NULL,NULL,NULL,NULL,NULL,NULL,NULL,NULL,NULL,NULL,NULL,NULL,NULL,NULL,NULL,NULL,html-button-response,NULL,NULL,NULL,NULL,NULL,NULL,NULL,NULL,NULL,NULL,NULL,NULL,NULL,NULL,NULL,NULL,NULL,NULL
47785,02/29/2020,86,1,test1,NULL,mixed,test-repeat,664.16000000027,NULL,354070,NULL,NULL,NULL,NULL,NULL,NULL,NULL,NULL,NULL,NULL,NULL,NULL,NULL,key,img/dishware/cup2.jpg,img/animals/dog2.jpg,img/cars/car3.jpg,img/furniture/chair3.jpg,img/clothes/sho2.jpg,img/insects/but3.jpg,NULL,NULL,NULL,0.0-86.0,16.835353535354,NULL,./audio/agen.mp3,car,5,50,NULL,NULL,NULL,NULL,NULL,NULL,NULL,NULL,NULL,NULL,NULL,NULL,NULL,NULL,NULL,NULL,NULL,NULL,NULL,NULL,NULL,NULL,NULL,NULL,NULL,psychophysics,NULL,NULL,NULL,NULL,NULL,NULL,NULL,NULL,NULL,NULL,NULL,NULL,NULL,NULL,NULL,NULL,NULL,NULL
47785,02/29/2020,87,1,train1,NULL,mixed,NULL,,"<div style="font-size:60px;">+</div>",354325,,NULL,NULL,NULL,NULL,NULL,NULL,NULL,NULL,NULL,NULL,NULL,NULL,NULL,NULL,NULL,NULL,NULL,NULL,NULL,NULL,NULL,NULL,0.0-87.0,NULL,NULL,NULL,NULL,NULL,NULL,NULL,NULL,NULL,NULL,NULL,NULL,NULL,NULL,NULL,NULL,NULL,NULL,NULL,NULL,NULL,NULL,NULL,NULL,NULL,NULL,NULL,NULL,NULL,NULL,NULL,html-button-response,NULL,NULL,NULL,NULL,NULL,NULL,NULL,NULL,NULL,NULL,NULL,NULL,NULL,NULL,NULL,NULL,NULL,NULL
47785,02/29/2020,88,1,test1,NULL,mixed,test-repeat,1478.9149999997,NULL,356805,NULL,NULL,NULL,NULL,NULL,NULL,NULL,NULL,NULL,NULL,NULL,NULL,NULL,key,img/clothes/sho2.jpg,img/cars/car3.jpg,img/insects/but3.jpg,img/animals/dog2.jpg,img/furniture/chair3.jpg,img/dishware/cup2.jpg,NULL,NULL,NULL,0.0-88.0,16.667,NULL,./audio/hage.mp3,clothes,5,49,NULL,NULL,NULL,NULL,NULL,NULL,NULL,NULL,NULL,NULL,NULL,NULL,NULL,NULL,NULL,NULL,NULL,NULL,NULL,NULL,NULL,NULL,NULL,NULL,NULL,psychophysics,NULL,NULL,NULL,NULL,NULL,NULL,NULL,NULL,NULL,NULL,NULL,NULL,NULL,NULL,NULL,NULL,NULL,NULL
47785,02/29/2020,89,1,train1,NULL,mixed,NULL,,"<div style="font-size:60px;">+</div>",357059,,NULL,NULL,NULL,NULL,NULL,NULL,NULL,NULL,NULL,NULL,NULL,NULL,NULL,NULL,NULL,NULL,NULL,NULL,NULL,NULL,NULL,NULL,0.0-89.0,NULL,NULL,NULL,NULL,NULL,NULL,NULL,NULL,NULL,NULL,NULL,NULL,NULL,NULL,NULL,NULL,NULL,NULL,NULL,NULL,NULL,NULL,NULL,NULL,NULL,NULL,NULL,NULL,NULL,NULL,NULL,html-button-response,NULL,NULL,NULL,NULL,NULL,NULL,NULL,NULL,NULL,NULL,NULL,NULL,NULL,NULL,NULL,NULL,NULL,NULL
47785,02/29/2020,90,1,test1,NULL,mixed,test-repeat,1207.4600000051,NULL,359268,NULL,NULL,NULL,NULL,NULL,NULL,NULL,NULL,NULL,NULL,NULL,NULL,NULL,key,img/animals/dog6.jpg,img/cars/car4.jpg,img/clothes/sho1.jpg,img/dishware/mug2.jpg,img/furniture/chair4.jpg,img/insects/but5.jpg,NULL,NULL,NULL,0.0-90.0,16.667,NULL,./audio/agen.mp3,car,5,50,NULL,NULL,NULL,NULL,NULL,NULL,NULL,NULL,NULL,NULL,NULL,NULL,NULL,NULL,NULL,NULL,NULL,NULL,NULL,NULL,NULL,NULL,NULL,NULL,NULL,psychophysics,NULL,NULL,NULL,NULL,NULL,NULL,NULL,NULL,NULL,NULL,NULL,NULL,NULL,NULL,NULL,NULL,NULL,NULL
47785,02/29/2020,91,1,train1,NULL,mixed,NULL,,"<div style="font-size:60px;">+</div>",359521,,NULL,NULL,NULL,NULL,NULL,NULL,NULL,NULL,NULL,NULL,NULL,NULL,NULL,NULL,NULL,NULL,NULL,NULL,NULL,NULL,NULL,NULL,0.0-91.0,NULL,NULL,NULL,NULL,NULL,NULL,NULL,NULL,NULL,NULL,NULL,NULL,NULL,NULL,NULL,NULL,NULL,NULL,NULL,NULL,NULL,NULL,NULL,NULL,NULL,NULL,NULL,NULL,NULL,NULL,NULL,html-button-response,NULL,NULL,NULL,NULL,NULL,NULL,NULL,NULL,NULL,NULL,NULL,NULL,NULL,NULL,NULL,NULL,NULL,NULL
47785,02/29/2020,92,1,test1,NULL,mixed,test-repeat,2568.1150000019,NULL,363093,NULL,NULL,NULL,NULL,NULL,NULL,NULL,NULL,NULL,NULL,NULL,NULL,NULL,key,img/clothes/sho1.jpg,img/furniture/chair4.jpg,img/animals/dog6.jpg,img/cars/car4.jpg,img/insects/but5.jpg,img/dishware/mug2.jpg,NULL,NULL,NULL,0.0-92.0,16.747535211267,NULL,./audio/eder.mp3,insect,1,53,NULL,NULL,NULL,NULL,NULL,NULL,NULL,NULL,NULL,NULL,NULL,NULL,NULL,NULL,NULL,NULL,NULL,NULL,NULL,NULL,NULL,NULL,NULL,NULL,NULL,psychophysics,NULL,NULL,NULL,NULL,NULL,NULL,NULL,NULL,NULL,NULL,NULL,NULL,NULL,NULL,NULL,NULL,NULL,NULL
47785,02/29/2020,93,1,train1,NULL,mixed,NULL,,"<div style="font-size:60px;">+</div>",363344,,NULL,NULL,NULL,NULL,NULL,NULL,NULL,NULL,NULL,NULL,NULL,NULL,NULL,NULL,NULL,NULL,NULL,NULL,NULL,NULL,NULL,NULL,0.0-93.0,NULL,NULL,NULL,NULL,NULL,NULL,NULL,NULL,NULL,NULL,NULL,NULL,NULL,NULL,NULL,NULL,NULL,NULL,NULL,NULL,NULL,NULL,NULL,NULL,NULL,NULL,NULL,NULL,NULL,NULL,NULL,html-button-response,NULL,NULL,NULL,NULL,NULL,NULL,NULL,NULL,NULL,NULL,NULL,NULL,NULL,NULL,NULL,NULL,NULL,NULL
47785,02/29/2020,94,1,test1,NULL,mixed,test-repeat,712.10999999312,NULL,365058,NULL,NULL,NULL,NULL,NULL,NULL,NULL,NULL,NULL,NULL,NULL,NULL,NULL,key,img/clothes/sho5.jpg,img/furniture/chair2.jpg,img/animals/dog4.jpg,img/cars/car6.jpg,img/insects/but4.jpg,img/dishware/cup3.jpg,NULL,NULL,NULL,0.0-94.0,16.83201980198,NULL,./audio/coodle.mp3,dog,3,51,NULL,NULL,NULL,NULL,NULL,NULL,NULL,NULL,NULL,NULL,NULL,NULL,NULL,NULL,NULL,NULL,NULL,NULL,NULL,NULL,NULL,NULL,NULL,NULL,NULL,psychophysics,NULL,NULL,NULL,NULL,NULL,NULL,NULL,NULL,NULL,NULL,NULL,NULL,NULL,NULL,NULL,NULL,NULL,NULL
47785,02/29/2020,95,1,train1,NULL,mixed,NULL,,"<div style="font-size:60px;">+</div>",365310,,NULL,NULL,NULL,NULL,NULL,NULL,NULL,NULL,NULL,NULL,NULL,NULL,NULL,NULL,NULL,NULL,NULL,NULL,NULL,NULL,NULL,NULL,0.0-95.0,NULL,NULL,NULL,NULL,NULL,NULL,NULL,NULL,NULL,NULL,NULL,NULL,NULL,NULL,NULL,NULL,NULL,NULL,NULL,NULL,NULL,NULL,NULL,NULL,NULL,NULL,NULL,NULL,NULL,NULL,NULL,html-button-response,NULL,NULL,NULL,NULL,NULL,NULL,NULL,NULL,NULL,NULL,NULL,NULL,NULL,NULL,NULL,NULL,NULL,NULL
47785,02/29/2020,96,1,test1,NULL,mixed,test-repeat,1602.5600000139,NULL,367914,NULL,NULL,NULL,NULL,NULL,NULL,NULL,NULL,NULL,NULL,NULL,NULL,NULL,key,img/clothes/sho1.jpg,img/furniture/chair4.jpg,img/cars/car4.jpg,img/dishware/mug2.jpg,img/animals/dog6.jpg,img/insects/but5.jpg,NULL,NULL,NULL,0.0-96.0,16.667,NULL,./audio/culp.mp3,kitchen,5,54,NULL,NULL,NULL,NULL,NULL,NULL,NULL,NULL,NULL,NULL,NULL,NULL,NULL,NULL,NULL,NULL,NULL,NULL,NULL,NULL,NULL,NULL,NULL,NULL,NULL,psychophysics,NULL,NULL,NULL,NULL,NULL,NULL,NULL,NULL,NULL,NULL,NULL,NULL,NULL,NULL,NULL,NULL,NULL,NULL
47785,02/29/2020,97,1,train1,NULL,mixed,NULL,,"<div style="font-size:60px;">+</div>",368167,,NULL,NULL,NULL,NULL,NULL,NULL,NULL,NULL,NULL,NULL,NULL,NULL,NULL,NULL,NULL,NULL,NULL,NULL,NULL,NULL,NULL,NULL,0.0-97.0,NULL,NULL,NULL,NULL,NULL,NULL,NULL,NULL,NULL,NULL,NULL,NULL,NULL,NULL,NULL,NULL,NULL,NULL,NULL,NULL,NULL,NULL,NULL,NULL,NULL,NULL,NULL,NULL,NULL,NULL,NULL,html-button-response,NULL,NULL,NULL,NULL,NULL,NULL,NULL,NULL,NULL,NULL,NULL,NULL,NULL,NULL,NULL,NULL,NULL,NULL
47785,02/29/2020,98,1,test1,NULL,mixed,test-repeat,1793.0650000053,NULL,370962,NULL,NULL,NULL,NULL,NULL,NULL,NULL,NULL,NULL,NULL,NULL,NULL,NULL,key,img/animals/dog6.jpg,img/dishware/mug2.jpg,img/insects/but5.jpg,img/clothes/sho1.jpg,img/furniture/chair4.jpg,img/cars/car4.jpg,NULL,NULL,NULL,0.0-98.0,16.667,NULL,./audio/hage.mp3,clothes,5,54,NULL,NULL,NULL,NULL,NULL,NULL,NULL,NULL,NULL,NULL,NULL,NULL,NULL,NULL,NULL,NULL,NULL,NULL,NULL,NULL,NULL,NULL,NULL,NULL,NULL,psychophysics,NULL,NULL,NULL,NULL,NULL,NULL,NULL,NULL,NULL,NULL,NULL,NULL,NULL,NULL,NULL,NULL,NULL,NULL
47785,02/29/2020,99,1,train1,NULL,mixed,NULL,,"<div style="font-size:60px;">+</div>",371218,,NULL,NULL,NULL,NULL,NULL,NULL,NULL,NULL,NULL,NULL,NULL,NULL,NULL,NULL,NULL,NULL,NULL,NULL,NULL,NULL,NULL,NULL,0.0-99.0,NULL,NULL,NULL,NULL,NULL,NULL,NULL,NULL,NULL,NULL,NULL,NULL,NULL,NULL,NULL,NULL,NULL,NULL,NULL,NULL,NULL,NULL,NULL,NULL,NULL,NULL,NULL,NULL,NULL,NULL,NULL,html-button-response,NULL,NULL,NULL,NULL,NULL,NULL,NULL,NULL,NULL,NULL,NULL,NULL,NULL,NULL,NULL,NULL,NULL,NULL
47785,02/29/2020,100,1,test1,NULL,mixed,test-repeat,2887.0449999959,NULL,375108,NULL,NULL,NULL,NULL,NULL,NULL,NULL,NULL,NULL,NULL,NULL,NULL,NULL,key,img/dishware/cup3.jpg,img/cars/car6.jpg,img/animals/dog4.jpg,img/clothes/sho5.jpg,img/insects/but4.jpg,img/furniture/chair2.jpg,NULL,NULL,NULL,0.0-100.0,16.668944206009,NULL,./audio/eder.mp3,insect,3,49,NULL,NULL,NULL,NULL,NULL,NULL,NULL,NULL,NULL,NULL,NULL,NULL,NULL,NULL,NULL,NULL,NULL,NULL,NULL,NULL,NULL,NULL,NULL,NULL,NULL,psychophysics,NULL,NULL,NULL,NULL,NULL,NULL,NULL,NULL,NULL,NULL,NULL,NULL,NULL,NULL,NULL,NULL,NULL,NULL
47785,02/29/2020,101,1,train1,NULL,mixed,NULL,,"<div style="font-size:60px;">+</div>",375363,,NULL,NULL,NULL,NULL,NULL,NULL,NULL,NULL,NULL,NULL,NULL,NULL,NULL,NULL,NULL,NULL,NULL,NULL,NULL,NULL,NULL,NULL,0.0-101.0,NULL,NULL,NULL,NULL,NULL,NULL,NULL,NULL,NULL,NULL,NULL,NULL,NULL,NULL,NULL,NULL,NULL,NULL,NULL,NULL,NULL,NULL,NULL,NULL,NULL,NULL,NULL,NULL,NULL,NULL,NULL,html-button-response,NULL,NULL,NULL,NULL,NULL,NULL,NULL,NULL,NULL,NULL,NULL,NULL,NULL,NULL,NULL,NULL,NULL,NULL
47785,02/29/2020,102,1,test1,NULL,mixed,test-repeat,2833.4500000055,NULL,379198,NULL,NULL,NULL,NULL,NULL,NULL,NULL,NULL,NULL,NULL,NULL,NULL,NULL,key,img/dishware/cup1.jpg,img/clothes/sho6.jpg,img/cars/car5.jpg,img/animals/dog5.jpg,img/insects/but1.jpg,img/furniture/chair6.jpg,NULL,NULL,NULL,0.0-102.0,16.667,NULL,./audio/gree.mp3,furniture,5,50,NULL,NULL,NULL,NULL,NULL,NULL,NULL,NULL,NULL,NULL,NULL,NULL,NULL,NULL,NULL,NULL,NULL,NULL,NULL,NULL,NULL,NULL,NULL,NULL,NULL,psychophysics,NULL,NULL,NULL,NULL,NULL,NULL,NULL,NULL,NULL,NULL,NULL,NULL,NULL,NULL,NULL,NULL,NULL,NULL
47785,02/29/2020,103,1,train1,NULL,mixed,NULL,,"<div style="font-size:60px;">+</div>",379450,,NULL,NULL,NULL,NULL,NULL,NULL,NULL,NULL,NULL,NULL,NULL,NULL,NULL,NULL,NULL,NULL,NULL,NULL,NULL,NULL,NULL,NULL,0.0-103.0,NULL,NULL,NULL,NULL,NULL,NULL,NULL,NULL,NULL,NULL,NULL,NULL,NULL,NULL,NULL,NULL,NULL,NULL,NULL,NULL,NULL,NULL,NULL,NULL,NULL,NULL,NULL,NULL,NULL,NULL,NULL,html-button-response,NULL,NULL,NULL,NULL,NULL,NULL,NULL,NULL,NULL,NULL,NULL,NULL,NULL,NULL,NULL,NULL,NULL,NULL
47785,02/29/2020,104,1,test1,NULL,mixed,test-repeat,2205.1399999909,NULL,382657,NULL,NULL,NULL,NULL,NULL,NULL,NULL,NULL,NULL,NULL,NULL,NULL,NULL,key,img/dishware/cup2.jpg,img/insects/but3.jpg,img/animals/dog2.jpg,img/cars/car3.jpg,img/clothes/sho2.jpg,img/furniture/chair3.jpg,NULL,NULL,NULL,0.0-104.0,16.669734375,NULL,./audio/culp.mp3,kitchen,5,51,NULL,NULL,NULL,NULL,NULL,NULL,NULL,NULL,NULL,NULL,NULL,NULL,NULL,NULL,NULL,NULL,NULL,NULL,NULL,NULL,NULL,NULL,NULL,NULL,NULL,psychophysics,NULL,NULL,NULL,NULL,NULL,NULL,NULL,NULL,NULL,NULL,NULL,NULL,NULL,NULL,NULL,NULL,NULL,NULL
47785,02/29/2020,105,1,train1,NULL,mixed,NULL,,"<div style="font-size:60px;">+</div>",382910,,NULL,NULL,NULL,NULL,NULL,NULL,NULL,NULL,NULL,NULL,NULL,NULL,NULL,NULL,NULL,NULL,NULL,NULL,NULL,NULL,NULL,NULL,0.0-105.0,NULL,NULL,NULL,NULL,NULL,NULL,NULL,NULL,NULL,NULL,NULL,NULL,NULL,NULL,NULL,NULL,NULL,NULL,NULL,NULL,NULL,NULL,NULL,NULL,NULL,NULL,NULL,NULL,NULL,NULL,NULL,html-button-response,NULL,NULL,NULL,NULL,NULL,NULL,NULL,NULL,NULL,NULL,NULL,NULL,NULL,NULL,NULL,NULL,NULL,NULL
47785,02/29/2020,106,1,test1,NULL,mixed,test-repeat,2304.845000006,NULL,386217,NULL,NULL,NULL,NULL,NULL,NULL,NULL,NULL,NULL,NULL,NULL,NULL,NULL,key,img/clothes/sho6.jpg,img/insects/but1.jpg,img/dishware/cup1.jpg,img/furniture/chair6.jpg,img/animals/dog5.jpg,img/cars/car5.jpg,NULL,NULL,NULL,0.0-106.0,16.667,NULL,./audio/coodle.mp3,dog,5,51,NULL,NULL,NULL,NULL,NULL,NULL,NULL,NULL,NULL,NULL,NULL,NULL,NULL,NULL,NULL,NULL,NULL,NULL,NULL,NULL,NULL,NULL,NULL,NULL,NULL,psychophysics,NULL,NULL,NULL,NULL,NULL,NULL,NULL,NULL,NULL,NULL,NULL,NULL,NULL,NULL,NULL,NULL,NULL,NULL
47785,02/29/2020,107,1,train1,NULL,mixed,NULL,,"<div style="font-size:60px;">+</div>",386473,,NULL,NULL,NULL,NULL,NULL,NULL,NULL,NULL,NULL,NULL,NULL,NULL,NULL,NULL,NULL,NULL,NULL,NULL,NULL,NULL,NULL,NULL,0.0-107.0,NULL,NULL,NULL,NULL,NULL,NULL,NULL,NULL,NULL,NULL,NULL,NULL,NULL,NULL,NULL,NULL,NULL,NULL,NULL,NULL,NULL,NULL,NULL,NULL,NULL,NULL,NULL,NULL,NULL,NULL,NULL,html-button-response,NULL,NULL,NULL,NULL,NULL,NULL,NULL,NULL,NULL,NULL,NULL,NULL,NULL,NULL,NULL,NULL,NULL,NULL
47785,02/29/2020,108,1,test1,NULL,mixed,test-repeat,826.30999998946,NULL,388303,NULL,NULL,NULL,NULL,NULL,NULL,NULL,NULL,NULL,NULL,NULL,NULL,NULL,key,img/insects/but4.jpg,img/cars/car6.jpg,img/clothes/sho5.jpg,img/dishware/cup3.jpg,img/furniture/chair2.jpg,img/animals/dog4.jpg,NULL,NULL,NULL,0.0-108.0,16.819908256881,NULL,./audio/agen.mp3,car,5,51,NULL,NULL,NULL,NULL,NULL,NULL,NULL,NULL,NULL,NULL,NULL,NULL,NULL,NULL,NULL,NULL,NULL,NULL,NULL,NULL,NULL,NULL,NULL,NULL,NULL,psychophysics,NULL,NULL,NULL,NULL,NULL,NULL,NULL,NULL,NULL,NULL,NULL,NULL,NULL,NULL,NULL,NULL,NULL,NULL
47785,02/29/2020,109,1,train1,NULL,mixed,NULL,,"<div style="font-size:60px;">+</div>",388558,,NULL,NULL,NULL,NULL,NULL,NULL,NULL,NULL,NULL,NULL,NULL,NULL,NULL,NULL,NULL,NULL,NULL,NULL,NULL,NULL,NULL,NULL,0.0-109.0,NULL,NULL,NULL,NULL,NULL,NULL,NULL,NULL,NULL,NULL,NULL,NULL,NULL,NULL,NULL,NULL,NULL,NULL,NULL,NULL,NULL,NULL,NULL,NULL,NULL,NULL,NULL,NULL,NULL,NULL,NULL,html-button-response,NULL,NULL,NULL,NULL,NULL,NULL,NULL,NULL,NULL,NULL,NULL,NULL,NULL,NULL,NULL,NULL,NULL,NULL
47785,02/29/2020,110,1,test1,NULL,mixed,test-repeat,1374.4000000006,NULL,390935,NULL,NULL,NULL,NULL,NULL,NULL,NULL,NULL,NULL,NULL,NULL,NULL,NULL,key,img/clothes/sho2.jpg,img/furniture/chair3.jpg,img/insects/but3.jpg,img/animals/dog2.jpg,img/dishware/cup2.jpg,img/cars/car3.jpg,NULL,NULL,NULL,0.0-110.0,16.667,NULL,./audio/gree.mp3,furniture,11,50,NULL,NULL,NULL,NULL,NULL,NULL,NULL,NULL,NULL,NULL,NULL,NULL,NULL,NULL,NULL,NULL,NULL,NULL,NULL,NULL,NULL,NULL,NULL,NULL,NULL,psychophysics,NULL,NULL,NULL,NULL,NULL,NULL,NULL,NULL,NULL,NULL,NULL,NULL,NULL,NULL,NULL,NULL,NULL,NULL
47785,02/29/2020,111,1,train1,NULL,mixed,NULL,,"<div style="font-size:60px;">+</div>",391188,,NULL,NULL,NULL,NULL,NULL,NULL,NULL,NULL,NULL,NULL,NULL,NULL,NULL,NULL,NULL,NULL,NULL,NULL,NULL,NULL,NULL,NULL,0.0-111.0,NULL,NULL,NULL,NULL,NULL,NULL,NULL,NULL,NULL,NULL,NULL,NULL,NULL,NULL,NULL,NULL,NULL,NULL,NULL,NULL,NULL,NULL,NULL,NULL,NULL,NULL,NULL,NULL,NULL,NULL,NULL,html-button-response,NULL,NULL,NULL,NULL,NULL,NULL,NULL,NULL,NULL,NULL,NULL,NULL,NULL,NULL,NULL,NULL,NULL,NULL
47785,02/29/2020,112,1,test1,NULL,mixed,test-repeat,1195.0450000004,NULL,393385,NULL,NULL,NULL,NULL,NULL,NULL,NULL,NULL,NULL,NULL,NULL,NULL,NULL,key,img/furniture/chair6.jpg,img/dishware/cup1.jpg,img/clothes/sho6.jpg,img/animals/dog5.jpg,img/cars/car5.jpg,img/insects/but1.jpg,NULL,NULL,NULL,0.0-112.0,16.670734848484,NULL,./audio/culp.mp3,kitchen,5,52,NULL,NULL,NULL,NULL,NULL,NULL,NULL,NULL,NULL,NULL,NULL,NULL,NULL,NULL,NULL,NULL,NULL,NULL,NULL,NULL,NULL,NULL,NULL,NULL,NULL,psychophysics,NULL,NULL,NULL,NULL,NULL,NULL,NULL,NULL,NULL,NULL,NULL,NULL,NULL,NULL,NULL,NULL,NULL,NULL
47785,02/29/2020,113,1,train1,NULL,mixed,NULL,,"<div style="font-size:60px;">+</div>",393638,,NULL,NULL,NULL,NULL,NULL,NULL,NULL,NULL,NULL,NULL,NULL,NULL,NULL,NULL,NULL,NULL,NULL,NULL,NULL,NULL,NULL,NULL,0.0-113.0,NULL,NULL,NULL,NULL,NULL,NULL,NULL,NULL,NULL,NULL,NULL,NULL,NULL,NULL,NULL,NULL,NULL,NULL,NULL,NULL,NULL,NULL,NULL,NULL,NULL,NULL,NULL,NULL,NULL,NULL,NULL,html-button-response,NULL,NULL,NULL,NULL,NULL,NULL,NULL,NULL,NULL,NULL,NULL,NULL,NULL,NULL,NULL,NULL,NULL,NULL
47785,02/29/2020,114,1,test1,NULL,mixed,test-repeat,4046.8050000054,NULL,398688,NULL,NULL,NULL,NULL,NULL,NULL,NULL,NULL,NULL,NULL,NULL,NULL,NULL,key,img/furniture/chair4.jpg,img/insects/but5.jpg,img/clothes/sho1.jpg,img/dishware/mug2.jpg,img/animals/dog6.jpg,img/cars/car4.jpg,NULL,NULL,NULL,0.0-114.0,16.667,NULL,./audio/gree.mp3,furniture,1,52,NULL,NULL,NULL,NULL,NULL,NULL,NULL,NULL,NULL,NULL,NULL,NULL,NULL,NULL,NULL,NULL,NULL,NULL,NULL,NULL,NULL,NULL,NULL,NULL,NULL,psychophysics,NULL,NULL,NULL,NULL,NULL,NULL,NULL,NULL,NULL,NULL,NULL,NULL,NULL,NULL,NULL,NULL,NULL,NULL
47785,02/29/2020,115,1,train1,NULL,mixed,NULL,,"<div style="font-size:60px;">+</div>",398944,,NULL,NULL,NULL,NULL,NULL,NULL,NULL,NULL,NULL,NULL,NULL,NULL,NULL,NULL,NULL,NULL,NULL,NULL,NULL,NULL,NULL,NULL,0.0-115.0,NULL,NULL,NULL,NULL,NULL,NULL,NULL,NULL,NULL,NULL,NULL,NULL,NULL,NULL,NULL,NULL,NULL,NULL,NULL,NULL,NULL,NULL,NULL,NULL,NULL,NULL,NULL,NULL,NULL,NULL,NULL,html-button-response,NULL,NULL,NULL,NULL,NULL,NULL,NULL,NULL,NULL,NULL,NULL,NULL,NULL,NULL,NULL,NULL,NULL,NULL
47785,02/29/2020,116,1,test1,NULL,mixed,test-repeat,909.28000000713,NULL,400854,NULL,NULL,NULL,NULL,NULL,NULL,NULL,NULL,NULL,NULL,NULL,NULL,NULL,key,img/dishware/cup2.jpg,img/animals/dog2.jpg,img/insects/but3.jpg,img/cars/car3.jpg,img/furniture/chair3.jpg,img/clothes/sho2.jpg,NULL,NULL,NULL,0.0-116.0,16.667,NULL,./audio/coodle.mp3,dog,11,50,NULL,NULL,NULL,NULL,NULL,NULL,NULL,NULL,NULL,NULL,NULL,NULL,NULL,NULL,NULL,NULL,NULL,NULL,NULL,NULL,NULL,NULL,NULL,NULL,NULL,psychophysics,NULL,NULL,NULL,NULL,NULL,NULL,NULL,NULL,NULL,NULL,NULL,NULL,NULL,NULL,NULL,NULL,NULL,NULL
47785,02/29/2020,117,1,train1,NULL,mixed,NULL,,"<div style="font-size:60px;">+</div>",401109,,NULL,NULL,NULL,NULL,NULL,NULL,NULL,NULL,NULL,NULL,NULL,NULL,NULL,NULL,NULL,NULL,NULL,NULL,NULL,NULL,NULL,NULL,0.0-117.0,NULL,NULL,NULL,NULL,NULL,NULL,NULL,NULL,NULL,NULL,NULL,NULL,NULL,NULL,NULL,NULL,NULL,NULL,NULL,NULL,NULL,NULL,NULL,NULL,NULL,NULL,NULL,NULL,NULL,NULL,NULL,html-button-response,NULL,NULL,NULL,NULL,NULL,NULL,NULL,NULL,NULL,NULL,NULL,NULL,NULL,NULL,NULL,NULL,NULL,NULL
47785,02/29/2020,118,1,test1,NULL,mixed,test-repeat,3697.0550000115,NULL,405809,NULL,NULL,NULL,NULL,NULL,NULL,NULL,NULL,NULL,NULL,NULL,NULL,NULL,key,img/animals/dog2.jpg,img/dishware/cup2.jpg,img/furniture/chair3.jpg,img/insects/but3.jpg,img/cars/car3.jpg,img/clothes/sho2.jpg,NULL,NULL,NULL,0.0-118.0,16.728042704626,NULL,./audio/eder.mp3,insect,11,52,NULL,NULL,NULL,NULL,NULL,NULL,NULL,NULL,NULL,NULL,NULL,NULL,NULL,NULL,NULL,NULL,NULL,NULL,NULL,NULL,NULL,NULL,NULL,NULL,NULL,psychophysics,NULL,NULL,NULL,NULL,NULL,NULL,NULL,NULL,NULL,NULL,NULL,NULL,NULL,NULL,NULL,NULL,NULL,NULL
47785,02/29/2020,119,1,train1,NULL,mixed,NULL,,"<div style="font-size:60px;">+</div>",406061,,NULL,NULL,NULL,NULL,NULL,NULL,NULL,NULL,NULL,NULL,NULL,NULL,NULL,NULL,NULL,NULL,NULL,NULL,NULL,NULL,NULL,NULL,0.0-119.0,NULL,NULL,NULL,NULL,NULL,NULL,NULL,NULL,NULL,NULL,NULL,NULL,NULL,NULL,NULL,NULL,NULL,NULL,NULL,NULL,NULL,NULL,NULL,NULL,NULL,NULL,NULL,NULL,NULL,NULL,NULL,html-button-response,NULL,NULL,NULL,NULL,NULL,NULL,NULL,NULL,NULL,NULL,NULL,NULL,NULL,NULL,NULL,NULL,NULL,NULL
47785,02/29/2020,120,1,test1,NULL,mixed,test-repeat,1073.510000002,NULL,408135,NULL,NULL,NULL,NULL,NULL,NULL,NULL,NULL,NULL,NULL,NULL,NULL,NULL,key,img/cars/car5.jpg,img/furniture/chair6.jpg,img/animals/dog5.jpg,img/insects/but1.jpg,img/dishware/cup1.jpg,img/clothes/sho6.jpg,NULL,NULL,NULL,0.0-120.0,16.667,NULL,./audio/hage.mp3,clothes,5,49,NULL,NULL,NULL,NULL,NULL,NULL,NULL,NULL,NULL,NULL,NULL,NULL,NULL,NULL,NULL,NULL,NULL,NULL,NULL,NULL,NULL,NULL,NULL,NULL,NULL,psychophysics,NULL,NULL,NULL,NULL,NULL,NULL,NULL,NULL,NULL,NULL,NULL,NULL,NULL,NULL,NULL,NULL,NULL,NULL
47785,02/29/2020,121,1,train1,NULL,mixed,NULL,,"<div style="font-size:60px;">+</div>",408388,,NULL,NULL,NULL,NULL,NULL,NULL,NULL,NULL,NULL,NULL,NULL,NULL,NULL,NULL,NULL,NULL,NULL,NULL,NULL,NULL,NULL,NULL,0.0-121.0,NULL,NULL,NULL,NULL,NULL,NULL,NULL,NULL,NULL,NULL,NULL,NULL,NULL,NULL,NULL,NULL,NULL,NULL,NULL,NULL,NULL,NULL,NULL,NULL,NULL,NULL,NULL,NULL,NULL,NULL,NULL,html-button-response,NULL,NULL,NULL,NULL,NULL,NULL,NULL,NULL,NULL,NULL,NULL,NULL,NULL,NULL,NULL,NULL,NULL,NULL
47785,02/29/2020,122,1,test1,NULL,mixed,test-repeat,755.68000000203,NULL,410145,NULL,NULL,NULL,NULL,NULL,NULL,NULL,NULL,NULL,NULL,NULL,NULL,NULL,key,img/dishware/cup3.jpg,img/clothes/sho5.jpg,img/cars/car6.jpg,img/furniture/chair2.jpg,img/insects/but4.jpg,img/animals/dog4.jpg,NULL,NULL,NULL,0.0-122.0,16.667,NULL,./audio/culp.mp3,kitchen,5,49,NULL,NULL,NULL,NULL,NULL,NULL,NULL,NULL,NULL,NULL,NULL,NULL,NULL,NULL,NULL,NULL,NULL,NULL,NULL,NULL,NULL,NULL,NULL,NULL,NULL,psychophysics,NULL,NULL,NULL,NULL,NULL,NULL,NULL,NULL,NULL,NULL,NULL,NULL,NULL,NULL,NULL,NULL,NULL,NULL
47785,02/29/2020,123,1,train1,NULL,mixed,NULL,,"<div style="font-size:60px;">+</div>",410397,,NULL,NULL,NULL,NULL,NULL,NULL,NULL,NULL,NULL,NULL,NULL,NULL,NULL,NULL,NULL,NULL,NULL,NULL,NULL,NULL,NULL,NULL,0.0-123.0,NULL,NULL,NULL,NULL,NULL,NULL,NULL,NULL,NULL,NULL,NULL,NULL,NULL,NULL,NULL,NULL,NULL,NULL,NULL,NULL,NULL,NULL,NULL,NULL,NULL,NULL,NULL,NULL,NULL,NULL,NULL,html-button-response,NULL,NULL,NULL,NULL,NULL,NULL,NULL,NULL,NULL,NULL,NULL,NULL,NULL,NULL,NULL,NULL,NULL,NULL
47785,02/29/2020,124,1,test1,NULL,mixed,test-repeat,290.94500000065,NULL,411689,NULL,NULL,NULL,NULL,NULL,NULL,NULL,NULL,NULL,NULL,NULL,NULL,NULL,key,img/animals/dog6.jpg,img/dishware/mug2.jpg,img/insects/but5.jpg,img/cars/car4.jpg,img/furniture/chair4.jpg,img/clothes/sho1.jpg,NULL,NULL,NULL,0.0-124.0,16.667,NULL,./audio/coodle.mp3,dog,1,49,NULL,NULL,NULL,NULL,NULL,NULL,NULL,NULL,NULL,NULL,NULL,NULL,NULL,NULL,NULL,NULL,NULL,NULL,NULL,NULL,NULL,NULL,NULL,NULL,NULL,psychophysics,NULL,NULL,NULL,NULL,NULL,NULL,NULL,NULL,NULL,NULL,NULL,NULL,NULL,NULL,NULL,NULL,NULL,NULL
47785,02/29/2020,125,1,train1,NULL,mixed,NULL,,"<div style="font-size:60px;">+</div>",411941,,NULL,NULL,NULL,NULL,NULL,NULL,NULL,NULL,NULL,NULL,NULL,NULL,NULL,NULL,NULL,NULL,NULL,NULL,NULL,NULL,NULL,NULL,0.0-125.0,NULL,NULL,NULL,NULL,NULL,NULL,NULL,NULL,NULL,NULL,NULL,NULL,NULL,NULL,NULL,NULL,NULL,NULL,NULL,NULL,NULL,NULL,NULL,NULL,NULL,NULL,NULL,NULL,NULL,NULL,NULL,html-button-response,NULL,NULL,NULL,NULL,NULL,NULL,NULL,NULL,NULL,NULL,NULL,NULL,NULL,NULL,NULL,NULL,NULL,NULL
47785,02/29/2020,126,1,test1,NULL,mixed,test-repeat,797.53000001074,NULL,413742,NULL,NULL,NULL,NULL,NULL,NULL,NULL,NULL,NULL,NULL,NULL,NULL,NULL,key,img/insects/but1.jpg,img/dishware/cup1.jpg,img/clothes/sho6.jpg,img/animals/dog5.jpg,img/cars/car5.jpg,img/furniture/chair6.jpg,NULL,NULL,NULL,0.0-126.0,16.82653271028,NULL,./audio/agen.mp3,car,5,52,NULL,NULL,NULL,NULL,NULL,NULL,NULL,NULL,NULL,NULL,NULL,NULL,NULL,NULL,NULL,NULL,NULL,NULL,NULL,NULL,NULL,NULL,NULL,NULL,NULL,psychophysics,NULL,NULL,NULL,NULL,NULL,NULL,NULL,NULL,NULL,NULL,NULL,NULL,NULL,NULL,NULL,NULL,NULL,NULL
47785,02/29/2020,127,1,train1,NULL,mixed,NULL,,"<div style="font-size:60px;">+</div>",413996,,NULL,NULL,NULL,NULL,NULL,NULL,NULL,NULL,NULL,NULL,NULL,NULL,NULL,NULL,NULL,NULL,NULL,NULL,NULL,NULL,NULL,NULL,0.0-127.0,NULL,NULL,NULL,NULL,NULL,NULL,NULL,NULL,NULL,NULL,NULL,NULL,NULL,NULL,NULL,NULL,NULL,NULL,NULL,NULL,NULL,NULL,NULL,NULL,NULL,NULL,NULL,NULL,NULL,NULL,NULL,html-button-response,NULL,NULL,NULL,NULL,NULL,NULL,NULL,NULL,NULL,NULL,NULL,NULL,NULL,NULL,NULL,NULL,NULL,NULL
47785,02/29/2020,128,1,test1,NULL,mixed,test-repeat,1036.1600000033,NULL,416034,NULL,NULL,NULL,NULL,NULL,NULL,NULL,NULL,NULL,NULL,NULL,NULL,NULL,key,img/dishware/cup1.jpg,img/cars/car5.jpg,img/animals/dog5.jpg,img/furniture/chair6.jpg,img/clothes/sho6.jpg,img/insects/but1.jpg,NULL,NULL,NULL,0.0-128.0,16.667,NULL,./audio/eder.mp3,insect,5,53,NULL,NULL,NULL,NULL,NULL,NULL,NULL,NULL,NULL,NULL,NULL,NULL,NULL,NULL,NULL,NULL,NULL,NULL,NULL,NULL,NULL,NULL,NULL,NULL,NULL,psychophysics,NULL,NULL,NULL,NULL,NULL,NULL,NULL,NULL,NULL,NULL,NULL,NULL,NULL,NULL,NULL,NULL,NULL,NULL
47785,02/29/2020,129,1,train1,NULL,mixed,NULL,,"<div style="font-size:60px;">+</div>",416289,,NULL,NULL,NULL,NULL,NULL,NULL,NULL,NULL,NULL,NULL,NULL,NULL,NULL,NULL,NULL,NULL,NULL,NULL,NULL,NULL,NULL,NULL,0.0-129.0,NULL,NULL,NULL,NULL,NULL,NULL,NULL,NULL,NULL,NULL,NULL,NULL,NULL,NULL,NULL,NULL,NULL,NULL,NULL,NULL,NULL,NULL,NULL,NULL,NULL,NULL,NULL,NULL,NULL,NULL,NULL,html-button-response,NULL,NULL,NULL,NULL,NULL,NULL,NULL,NULL,NULL,NULL,NULL,NULL,NULL,NULL,NULL,NULL,NULL,NULL
47785,02/29/2020,130,1,test1,NULL,mixed,test-repeat,326.72999998613,NULL,417619,NULL,NULL,NULL,NULL,NULL,NULL,NULL,NULL,NULL,NULL,NULL,NULL,NULL,key,img/clothes/sho5.jpg,img/dishware/cup3.jpg,img/insects/but4.jpg,img/furniture/chair2.jpg,img/animals/dog4.jpg,img/cars/car6.jpg,NULL,NULL,NULL,0.0-130.0,16.667,NULL,./audio/hage.mp3,clothes,5,54,NULL,NULL,NULL,NULL,NULL,NULL,NULL,NULL,NULL,NULL,NULL,NULL,NULL,NULL,NULL,NULL,NULL,NULL,NULL,NULL,NULL,NULL,NULL,NULL,NULL,psychophysics,NULL,NULL,NULL,NULL,NULL,NULL,NULL,NULL,NULL,NULL,NULL,NULL,NULL,NULL,NULL,NULL,NULL,NULL
47785,02/29/2020,131,1,train1,NULL,mixed,NULL,,"<div style="font-size:60px;">+</div>",417870,,NULL,NULL,NULL,NULL,NULL,NULL,NULL,NULL,NULL,NULL,NULL,NULL,NULL,NULL,NULL,NULL,NULL,NULL,NULL,NULL,NULL,NULL,0.0-131.0,NULL,NULL,NULL,NULL,NULL,NULL,NULL,NULL,NULL,NULL,NULL,NULL,NULL,NULL,NULL,NULL,NULL,NULL,NULL,NULL,NULL,NULL,NULL,NULL,NULL,NULL,NULL,NULL,NULL,NULL,NULL,html-button-response,NULL,NULL,NULL,NULL,NULL,NULL,NULL,NULL,NULL,NULL,NULL,NULL,NULL,NULL,NULL,NULL,NULL,NULL
47785,02/29/2020,132,1,test1,NULL,mixed,test-novel,288.62999999546,NULL,419160,NULL,NULL,NULL,NULL,NULL,NULL,NULL,NULL,NULL,NULL,NULL,NULL,NULL,key,img/animals/dog3.jpg,img/cars/car2.jpg,img/furniture/chair5.jpg,img/clothes/sho4.jpg,img/insects/but2.jpg,img/dishware/mug3.jpg,NULL,NULL,NULL,0.0-132.0,16.667,NULL,./audio/gree.mp3,furniture,"[11,5,3,1]",52,NULL,NULL,NULL,NULL,NULL,NULL,NULL,NULL,NULL,NULL,NULL,NULL,NULL,NULL,NULL,NULL,NULL,NULL,NULL,NULL,NULL,NULL,NULL,NULL,NULL,psychophysics,NULL,NULL,NULL,NULL,NULL,NULL,NULL,NULL,NULL,NULL,NULL,NULL,NULL,NULL,NULL,NULL,NULL,NULL
47785,02/29/2020,133,1,train1,NULL,mixed,NULL,,"<div style="font-size:60px;">+</div>",419413,,NULL,NULL,NULL,NULL,NULL,NULL,NULL,NULL,NULL,NULL,NULL,NULL,NULL,NULL,NULL,NULL,NULL,NULL,NULL,NULL,NULL,NULL,0.0-133.0,NULL,NULL,NULL,NULL,NULL,NULL,NULL,NULL,NULL,NULL,NULL,NULL,NULL,NULL,NULL,NULL,NULL,NULL,NULL,NULL,NULL,NULL,NULL,NULL,NULL,NULL,NULL,NULL,NULL,NULL,NULL,html-button-response,NULL,NULL,NULL,NULL,NULL,NULL,NULL,NULL,NULL,NULL,NULL,NULL,NULL,NULL,NULL,NULL,NULL,NULL
47785,02/29/2020,134,1,test1,NULL,mixed,test-novel,145.7800000062,NULL,420560,NULL,NULL,NULL,NULL,NULL,NULL,NULL,NULL,NULL,NULL,NULL,NULL,NULL,key,img/furniture/chair1.jpg,img/clothes/sho3.jpg,img/cars/car1.jpg,img/animals/dog1.jpg,img/dishware/mug1.jpg,img/insects/but6.jpg,NULL,NULL,NULL,0.0-134.0,16.667,NULL,./audio/eder.mp3,insect,"[11,5,3,1]",54,NULL,NULL,NULL,NULL,NULL,NULL,NULL,NULL,NULL,NULL,NULL,NULL,NULL,NULL,NULL,NULL,NULL,NULL,NULL,NULL,NULL,NULL,NULL,NULL,NULL,psychophysics,NULL,NULL,NULL,NULL,NULL,NULL,NULL,NULL,NULL,NULL,NULL,NULL,NULL,NULL,NULL,NULL,NULL,NULL
47785,02/29/2020,135,1,train1,NULL,mixed,NULL,,"<div style="font-size:60px;">+</div>",420812,,NULL,NULL,NULL,NULL,NULL,NULL,NULL,NULL,NULL,NULL,NULL,NULL,NULL,NULL,NULL,NULL,NULL,NULL,NULL,NULL,NULL,NULL,0.0-135.0,NULL,NULL,NULL,NULL,NULL,NULL,NULL,NULL,NULL,NULL,NULL,NULL,NULL,NULL,NULL,NULL,NULL,NULL,NULL,NULL,NULL,NULL,NULL,NULL,NULL,NULL,NULL,NULL,NULL,NULL,NULL,html-button-response,NULL,NULL,NULL,NULL,NULL,NULL,NULL,NULL,NULL,NULL,NULL,NULL,NULL,NULL,NULL,NULL,NULL,NULL
47785,02/29/2020,136,1,test1,NULL,mixed,test-novel,947.46000001032,NULL,422761,NULL,NULL,NULL,NULL,NULL,NULL,NULL,NULL,NULL,NULL,NULL,NULL,NULL,key,img/insects/but6.jpg,img/dishware/mug1.jpg,img/clothes/sho3.jpg,img/cars/car1.jpg,img/furniture/chair1.jpg,img/animals/dog1.jpg,NULL,NULL,NULL,0.0-136.0,16.815793103448,NULL,./audio/gree.mp3,furniture,"[11,5,3,1]",53,NULL,NULL,NULL,NULL,NULL,NULL,NULL,NULL,NULL,NULL,NULL,NULL,NULL,NULL,NULL,NULL,NULL,NULL,NULL,NULL,NULL,NULL,NULL,NULL,NULL,psychophysics,NULL,NULL,NULL,NULL,NULL,NULL,NULL,NULL,NULL,NULL,NULL,NULL,NULL,NULL,NULL,NULL,NULL,NULL
47785,02/29/2020,137,1,train1,NULL,mixed,NULL,,"<div style="font-size:60px;">+</div>",423017,,NULL,NULL,NULL,NULL,NULL,NULL,NULL,NULL,NULL,NULL,NULL,NULL,NULL,NULL,NULL,NULL,NULL,NULL,NULL,NULL,NULL,NULL,0.0-137.0,NULL,NULL,NULL,NULL,NULL,NULL,NULL,NULL,NULL,NULL,NULL,NULL,NULL,NULL,NULL,NULL,NULL,NULL,NULL,NULL,NULL,NULL,NULL,NULL,NULL,NULL,NULL,NULL,NULL,NULL,NULL,html-button-response,NULL,NULL,NULL,NULL,NULL,NULL,NULL,NULL,NULL,NULL,NULL,NULL,NULL,NULL,NULL,NULL,NULL,NULL
47785,02/29/2020,138,1,test1,NULL,mixed,test-novel,6116.1299999949,NULL,430135,NULL,NULL,NULL,NULL,NULL,NULL,NULL,NULL,NULL,NULL,NULL,NULL,NULL,key,img/dishware/mug1.jpg,img/furniture/chair1.jpg,img/insects/but6.jpg,img/clothes/sho3.jpg,img/animals/dog1.jpg,img/cars/car1.jpg,NULL,NULL,NULL,0.0-138.0,16.667,NULL,./audio/culp.mp3,kitchen,"[5,5,5,5]",51,NULL,NULL,NULL,NULL,NULL,NULL,NULL,NULL,NULL,NULL,NULL,NULL,NULL,NULL,NULL,NULL,NULL,NULL,NULL,NULL,NULL,NULL,NULL,NULL,NULL,psychophysics,NULL,NULL,NULL,NULL,NULL,NULL,NULL,NULL,NULL,NULL,NULL,NULL,NULL,NULL,NULL,NULL,NULL,NULL
47785,02/29/2020,139,1,train1,NULL,mixed,NULL,,"<div style="font-size:60px;">+</div>",430390,,NULL,NULL,NULL,NULL,NULL,NULL,NULL,NULL,NULL,NULL,NULL,NULL,NULL,NULL,NULL,NULL,NULL,NULL,NULL,NULL,NULL,NULL,0.0-139.0,NULL,NULL,NULL,NULL,NULL,NULL,NULL,NULL,NULL,NULL,NULL,NULL,NULL,NULL,NULL,NULL,NULL,NULL,NULL,NULL,NULL,NULL,NULL,NULL,NULL,NULL,NULL,NULL,NULL,NULL,NULL,html-button-response,NULL,NULL,NULL,NULL,NULL,NULL,NULL,NULL,NULL,NULL,NULL,NULL,NULL,NULL,NULL,NULL,NULL,NULL
47785,02/29/2020,140,1,test1,NULL,mixed,test-novel,2409.8599999998,NULL,433803,NULL,NULL,NULL,NULL,NULL,NULL,NULL,NULL,NULL,NULL,NULL,NULL,NULL,key,img/cars/car2.jpg,img/clothes/sho4.jpg,img/animals/dog3.jpg,img/insects/but2.jpg,img/dishware/mug3.jpg,img/furniture/chair5.jpg,NULL,NULL,NULL,0.0-140.0,16.669112195122,NULL,./audio/agen.mp3,car,"[5,5,5,5]",49,NULL,NULL,NULL,NULL,NULL,NULL,NULL,NULL,NULL,NULL,NULL,NULL,NULL,NULL,NULL,NULL,NULL,NULL,NULL,NULL,NULL,NULL,NULL,NULL,NULL,psychophysics,NULL,NULL,NULL,NULL,NULL,NULL,NULL,NULL,NULL,NULL,NULL,NULL,NULL,NULL,NULL,NULL,NULL,NULL
47785,02/29/2020,141,1,train1,NULL,mixed,NULL,,"<div style="font-size:60px;">+</div>",434055,,NULL,NULL,NULL,NULL,NULL,NULL,NULL,NULL,NULL,NULL,NULL,NULL,NULL,NULL,NULL,NULL,NULL,NULL,NULL,NULL,NULL,NULL,0.0-141.0,NULL,NULL,NULL,NULL,NULL,NULL,NULL,NULL,NULL,NULL,NULL,NULL,NULL,NULL,NULL,NULL,NULL,NULL,NULL,NULL,NULL,NULL,NULL,NULL,NULL,NULL,NULL,NULL,NULL,NULL,NULL,html-button-response,NULL,NULL,NULL,NULL,NULL,NULL,NULL,NULL,NULL,NULL,NULL,NULL,NULL,NULL,NULL,NULL,NULL,NULL
47785,02/29/2020,142,1,test1,NULL,mixed,test-novel,2997.4499999953,NULL,438054,NULL,NULL,NULL,NULL,NULL,NULL,NULL,NULL,NULL,NULL,NULL,NULL,NULL,key,img/cars/car1.jpg,img/animals/dog1.jpg,img/clothes/sho3.jpg,img/insects/but6.jpg,img/dishware/mug1.jpg,img/furniture/chair1.jpg,NULL,NULL,NULL,0.0-142.0,16.667,NULL,./audio/agen.mp3,car,"[5,5,5,5]",54,NULL,NULL,NULL,NULL,NULL,NULL,NULL,NULL,NULL,NULL,NULL,NULL,NULL,NULL,NULL,NULL,NULL,NULL,NULL,NULL,NULL,NULL,NULL,NULL,NULL,psychophysics,NULL,NULL,NULL,NULL,NULL,NULL,NULL,NULL,NULL,NULL,NULL,NULL,NULL,NULL,NULL,NULL,NULL,NULL
47785,02/29/2020,143,1,train1,NULL,mixed,NULL,,"<div style="font-size:60px;">+</div>",438308,,NULL,NULL,NULL,NULL,NULL,NULL,NULL,NULL,NULL,NULL,NULL,NULL,NULL,NULL,NULL,NULL,NULL,NULL,NULL,NULL,NULL,NULL,0.0-143.0,NULL,NULL,NULL,NULL,NULL,NULL,NULL,NULL,NULL,NULL,NULL,NULL,NULL,NULL,NULL,NULL,NULL,NULL,NULL,NULL,NULL,NULL,NULL,NULL,NULL,NULL,NULL,NULL,NULL,NULL,NULL,html-button-response,NULL,NULL,NULL,NULL,NULL,NULL,NULL,NULL,NULL,NULL,NULL,NULL,NULL,NULL,NULL,NULL,NULL,NULL
47785,02/29/2020,144,1,test1,NULL,mixed,test-novel,2250.5249999958,NULL,441562,NULL,NULL,NULL,NULL,NULL,NULL,NULL,NULL,NULL,NULL,NULL,NULL,NULL,key,img/clothes/sho4.jpg,img/furniture/chair5.jpg,img/insects/but2.jpg,img/dishware/mug3.jpg,img/animals/dog3.jpg,img/cars/car2.jpg,NULL,NULL,NULL,0.0-144.0,16.667,NULL,./audio/eder.mp3,insect,"[11,5,3,1]",49,NULL,NULL,NULL,NULL,NULL,NULL,NULL,NULL,NULL,NULL,NULL,NULL,NULL,NULL,NULL,NULL,NULL,NULL,NULL,NULL,NULL,NULL,NULL,NULL,NULL,psychophysics,NULL,NULL,NULL,NULL,NULL,NULL,NULL,NULL,NULL,NULL,NULL,NULL,NULL,NULL,NULL,NULL,NULL,NULL
47785,02/29/2020,145,1,train1,NULL,mixed,NULL,,"<div style="font-size:60px;">+</div>",441815,,NULL,NULL,NULL,NULL,NULL,NULL,NULL,NULL,NULL,NULL,NULL,NULL,NULL,NULL,NULL,NULL,NULL,NULL,NULL,NULL,NULL,NULL,0.0-145.0,NULL,NULL,NULL,NULL,NULL,NULL,NULL,NULL,NULL,NULL,NULL,NULL,NULL,NULL,NULL,NULL,NULL,NULL,NULL,NULL,NULL,NULL,NULL,NULL,NULL,NULL,NULL,NULL,NULL,NULL,NULL,html-button-response,NULL,NULL,NULL,NULL,NULL,NULL,NULL,NULL,NULL,NULL,NULL,NULL,NULL,NULL,NULL,NULL,NULL,NULL
47785,02/29/2020,146,1,test1,NULL,mixed,test-novel,2393.9599999867,NULL,445213,NULL,NULL,NULL,NULL,NULL,NULL,NULL,NULL,NULL,NULL,NULL,NULL,NULL,key,img/clothes/sho4.jpg,img/furniture/chair5.jpg,img/cars/car2.jpg,img/dishware/mug3.jpg,img/insects/but2.jpg,img/animals/dog3.jpg,NULL,NULL,NULL,0.0-146.0,16.669669950739,NULL,./audio/culp.mp3,kitchen,"[5,5,5,5]",52,NULL,NULL,NULL,NULL,NULL,NULL,NULL,NULL,NULL,NULL,NULL,NULL,NULL,NULL,NULL,NULL,NULL,NULL,NULL,NULL,NULL,NULL,NULL,NULL,NULL,psychophysics,NULL,NULL,NULL,NULL,NULL,NULL,NULL,NULL,NULL,NULL,NULL,NULL,NULL,NULL,NULL,NULL,NULL,NULL
47785,02/29/2020,147,1,train1,NULL,mixed,NULL,,"<div style="font-size:60px;">+</div>",445466,,NULL,NULL,NULL,NULL,NULL,NULL,NULL,NULL,NULL,NULL,NULL,NULL,NULL,NULL,NULL,NULL,NULL,NULL,NULL,NULL,NULL,NULL,0.0-147.0,NULL,NULL,NULL,NULL,NULL,NULL,NULL,NULL,NULL,NULL,NULL,NULL,NULL,NULL,NULL,NULL,NULL,NULL,NULL,NULL,NULL,NULL,NULL,NULL,NULL,NULL,NULL,NULL,NULL,NULL,NULL,html-button-response,NULL,NULL,NULL,NULL,NULL,NULL,NULL,NULL,NULL,NULL,NULL,NULL,NULL,NULL,NULL,NULL,NULL,NULL
47785,02/29/2020,148,1,test1,NULL,mixed,test-novel,2644.7849999968,NULL,449113,NULL,NULL,NULL,NULL,NULL,NULL,NULL,NULL,NULL,NULL,NULL,NULL,NULL,key,img/dishware/mug3.jpg,img/cars/car2.jpg,img/insects/but2.jpg,img/clothes/sho4.jpg,img/furniture/chair5.jpg,img/animals/dog3.jpg,NULL,NULL,NULL,0.0-148.0,16.667,NULL,./audio/coodle.mp3,dog,"[11,5,3,1]",54,NULL,NULL,NULL,NULL,NULL,NULL,NULL,NULL,NULL,NULL,NULL,NULL,NULL,NULL,NULL,NULL,NULL,NULL,NULL,NULL,NULL,NULL,NULL,NULL,NULL,psychophysics,NULL,NULL,NULL,NULL,NULL,NULL,NULL,NULL,NULL,NULL,NULL,NULL,NULL,NULL,NULL,NULL,NULL,NULL
47785,02/29/2020,149,1,train1,NULL,mixed,NULL,,"<div style="font-size:60px;">+</div>",449367,,NULL,NULL,NULL,NULL,NULL,NULL,NULL,NULL,NULL,NULL,NULL,NULL,NULL,NULL,NULL,NULL,NULL,NULL,NULL,NULL,NULL,NULL,0.0-149.0,NULL,NULL,NULL,NULL,NULL,NULL,NULL,NULL,NULL,NULL,NULL,NULL,NULL,NULL,NULL,NULL,NULL,NULL,NULL,NULL,NULL,NULL,NULL,NULL,NULL,NULL,NULL,NULL,NULL,NULL,NULL,html-button-response,NULL,NULL,NULL,NULL,NULL,NULL,NULL,NULL,NULL,NULL,NULL,NULL,NULL,NULL,NULL,NULL,NULL,NULL
47785,02/29/2020,150,1,test1,NULL,mixed,test-novel,1147.5449999998,NULL,451517,NULL,NULL,NULL,NULL,NULL,NULL,NULL,NULL,NULL,NULL,NULL,NULL,NULL,key,img/dishware/mug3.jpg,img/clothes/sho4.jpg,img/animals/dog3.jpg,img/insects/but2.jpg,img/furniture/chair5.jpg,img/cars/car2.jpg,NULL,NULL,NULL,0.0-150.0,16.667,NULL,./audio/hage.mp3,clothes,"[5,5,5,5]",53,NULL,NULL,NULL,NULL,NULL,NULL,NULL,NULL,NULL,NULL,NULL,NULL,NULL,NULL,NULL,NULL,NULL,NULL,NULL,NULL,NULL,NULL,NULL,NULL,NULL,psychophysics,NULL,NULL,NULL,NULL,NULL,NULL,NULL,NULL,NULL,NULL,NULL,NULL,NULL,NULL,NULL,NULL,NULL,NULL
47785,02/29/2020,151,1,train1,NULL,mixed,NULL,,"<div style="font-size:60px;">+</div>",451771,,NULL,NULL,NULL,NULL,NULL,NULL,NULL,NULL,NULL,NULL,NULL,NULL,NULL,NULL,NULL,NULL,NULL,NULL,NULL,NULL,NULL,NULL,0.0-151.0,NULL,NULL,NULL,NULL,NULL,NULL,NULL,NULL,NULL,NULL,NULL,NULL,NULL,NULL,NULL,NULL,NULL,NULL,NULL,NULL,NULL,NULL,NULL,NULL,NULL,NULL,NULL,NULL,NULL,NULL,NULL,html-button-response,NULL,NULL,NULL,NULL,NULL,NULL,NULL,NULL,NULL,NULL,NULL,NULL,NULL,NULL,NULL,NULL,NULL,NULL
47785,02/29/2020,152,1,test1,NULL,mixed,test-novel,1265.8499999961,NULL,454037,NULL,NULL,NULL,NULL,NULL,NULL,NULL,NULL,NULL,NULL,NULL,NULL,NULL,key,img/clothes/sho3.jpg,img/dishware/mug1.jpg,img/cars/car1.jpg,img/animals/dog1.jpg,img/furniture/chair1.jpg,img/insects/but6.jpg,NULL,NULL,NULL,0.0-152.0,16.670492647059,NULL,./audio/coodle.mp3,dog,"[11,5,3,1]",52,NULL,NULL,NULL,NULL,NULL,NULL,NULL,NULL,NULL,NULL,NULL,NULL,NULL,NULL,NULL,NULL,NULL,NULL,NULL,NULL,NULL,NULL,NULL,NULL,NULL,psychophysics,NULL,NULL,NULL,NULL,NULL,NULL,NULL,NULL,NULL,NULL,NULL,NULL,NULL,NULL,NULL,NULL,NULL,NULL
47785,02/29/2020,153,1,train1,NULL,mixed,NULL,,"<div style="font-size:60px;">+</div>",454290,,NULL,NULL,NULL,NULL,NULL,NULL,NULL,NULL,NULL,NULL,NULL,NULL,NULL,NULL,NULL,NULL,NULL,NULL,NULL,NULL,NULL,NULL,0.0-153.0,NULL,NULL,NULL,NULL,NULL,NULL,NULL,NULL,NULL,NULL,NULL,NULL,NULL,NULL,NULL,NULL,NULL,NULL,NULL,NULL,NULL,NULL,NULL,NULL,NULL,NULL,NULL,NULL,NULL,NULL,NULL,html-button-response,NULL,NULL,NULL,NULL,NULL,NULL,NULL,NULL,NULL,NULL,NULL,NULL,NULL,NULL,NULL,NULL,NULL,NULL
47785,02/29/2020,154,1,test1,NULL,mixed,test-novel,686.51500000851,NULL,455978,NULL,NULL,NULL,NULL,NULL,NULL,NULL,NULL,NULL,NULL,NULL,NULL,NULL,key,img/animals/dog1.jpg,img/cars/car1.jpg,img/clothes/sho3.jpg,img/furniture/chair1.jpg,img/insects/but6.jpg,img/dishware/mug1.jpg,NULL,NULL,NULL,0.0-154.0,16.667,NULL,./audio/hage.mp3,clothes,"[5,5,5,5]",52,NULL,NULL,NULL,NULL,NULL,NULL,NULL,NULL,NULL,NULL,NULL,NULL,NULL,NULL,NULL,NULL,NULL,NULL,NULL,NULL,NULL,NULL,NULL,NULL,NULL,psychophysics,NULL,NULL,NULL,NULL,NULL,NULL,NULL,NULL,NULL,NULL,NULL,NULL,NULL,NULL,NULL,NULL,NULL,NULL
47785,02/29/2020,155,1,train1,NULL,mixed,NULL,,"<div style="font-size:60px;">+</div>",456229,,NULL,NULL,NULL,NULL,NULL,NULL,NULL,NULL,NULL,NULL,NULL,NULL,NULL,NULL,NULL,NULL,NULL,NULL,NULL,NULL,NULL,NULL,0.0-155.0,NULL,NULL,NULL,NULL,NULL,NULL,NULL,NULL,NULL,NULL,NULL,NULL,NULL,NULL,NULL,NULL,NULL,NULL,NULL,NULL,NULL,NULL,NULL,NULL,NULL,NULL,NULL,NULL,NULL,NULL,NULL,html-button-response,NULL,NULL,NULL,NULL,NULL,NULL,NULL,NULL,NULL,NULL,NULL,NULL,NULL,NULL,NULL,NULL,NULL,NULL
47785,02/29/2020,156,1,test1,NULL,mixed,test-gener,4868.8299999922,NULL,462100,NULL,NULL,NULL,NULL,NULL,NULL,NULL,NULL,NULL,NULL,NULL,NULL,NULL,key,img/cars/truck1.jpg,img/clothes/pan1.jpg,img/animals/pig1.jpg,img/dishware/plate1.jpg,img/insects/bug2.jpg,img/furniture/desk1.jpg,NULL,NULL,NULL,0.0-156.0,16.714484330484,NULL,./audio/gree.mp3,furniture,"[11,5,3,1]",51,NULL,NULL,NULL,NULL,NULL,NULL,NULL,NULL,NULL,NULL,NULL,NULL,NULL,NULL,NULL,NULL,NULL,NULL,NULL,NULL,NULL,NULL,NULL,NULL,NULL,psychophysics,NULL,NULL,NULL,NULL,NULL,NULL,NULL,NULL,NULL,NULL,NULL,NULL,NULL,NULL,NULL,NULL,NULL,NULL
47785,02/29/2020,157,1,train1,NULL,mixed,NULL,,"<div style="font-size:60px;">+</div>",462353,,NULL,NULL,NULL,NULL,NULL,NULL,NULL,NULL,NULL,NULL,NULL,NULL,NULL,NULL,NULL,NULL,NULL,NULL,NULL,NULL,NULL,NULL,0.0-157.0,NULL,NULL,NULL,NULL,NULL,NULL,NULL,NULL,NULL,NULL,NULL,NULL,NULL,NULL,NULL,NULL,NULL,NULL,NULL,NULL,NULL,NULL,NULL,NULL,NULL,NULL,NULL,NULL,NULL,NULL,NULL,html-button-response,NULL,NULL,NULL,NULL,NULL,NULL,NULL,NULL,NULL,NULL,NULL,NULL,NULL,NULL,NULL,NULL,NULL,NULL
47785,02/29/2020,158,1,test1,NULL,mixed,test-gener,4075.7250000024,NULL,467430,NULL,NULL,NULL,NULL,NULL,NULL,NULL,NULL,NULL,NULL,NULL,NULL,NULL,key,img/insects/bug1.jpg,img/clothes/pan2.jpg,img/cars/bus1.jpg,img/dishware/bowl1.jpg,img/animals/bun1.jpg,img/furniture/bed1.jpg,NULL,NULL,NULL,0.0-158.0,16.668654605263,NULL,./audio/eder.mp3,insect,"[11,5,3,1]",51,NULL,NULL,NULL,NULL,NULL,NULL,NULL,NULL,NULL,NULL,NULL,NULL,NULL,NULL,NULL,NULL,NULL,NULL,NULL,NULL,NULL,NULL,NULL,NULL,NULL,psychophysics,NULL,NULL,NULL,NULL,NULL,NULL,NULL,NULL,NULL,NULL,NULL,NULL,NULL,NULL,NULL,NULL,NULL,NULL
47785,02/29/2020,159,1,train1,NULL,mixed,NULL,,"<div style="font-size:60px;">+</div>",467682,,NULL,NULL,NULL,NULL,NULL,NULL,NULL,NULL,NULL,NULL,NULL,NULL,NULL,NULL,NULL,NULL,NULL,NULL,NULL,NULL,NULL,NULL,0.0-159.0,NULL,NULL,NULL,NULL,NULL,NULL,NULL,NULL,NULL,NULL,NULL,NULL,NULL,NULL,NULL,NULL,NULL,NULL,NULL,NULL,NULL,NULL,NULL,NULL,NULL,NULL,NULL,NULL,NULL,NULL,NULL,html-button-response,NULL,NULL,NULL,NULL,NULL,NULL,NULL,NULL,NULL,NULL,NULL,NULL,NULL,NULL,NULL,NULL,NULL,NULL
47785,02/29/2020,160,1,test1,NULL,mixed,test-gener,3078.9300000033,NULL,471764,NULL,NULL,NULL,NULL,NULL,NULL,NULL,NULL,NULL,NULL,NULL,NULL,NULL,key,img/dishware/bowl1.jpg,img/cars/bus1.jpg,img/animals/bun1.jpg,img/furniture/bed1.jpg,img/insects/bug1.jpg,img/clothes/pan2.jpg,NULL,NULL,NULL,0.0-160.0,16.735307377049,NULL,./audio/agen.mp3,car,"[5,5,5,5]",54,NULL,NULL,NULL,NULL,NULL,NULL,NULL,NULL,NULL,NULL,NULL,NULL,NULL,NULL,NULL,NULL,NULL,NULL,NULL,NULL,NULL,NULL,NULL,NULL,NULL,psychophysics,NULL,NULL,NULL,NULL,NULL,NULL,NULL,NULL,NULL,NULL,NULL,NULL,NULL,NULL,NULL,NULL,NULL,NULL
47785,02/29/2020,161,1,train1,NULL,mixed,NULL,,"<div style="font-size:60px;">+</div>",472019,,NULL,NULL,NULL,NULL,NULL,NULL,NULL,NULL,NULL,NULL,NULL,NULL,NULL,NULL,NULL,NULL,NULL,NULL,NULL,NULL,NULL,NULL,0.0-161.0,NULL,NULL,NULL,NULL,NULL,NULL,NULL,NULL,NULL,NULL,NULL,NULL,NULL,NULL,NULL,NULL,NULL,NULL,NULL,NULL,NULL,NULL,NULL,NULL,NULL,NULL,NULL,NULL,NULL,NULL,NULL,html-button-response,NULL,NULL,NULL,NULL,NULL,NULL,NULL,NULL,NULL,NULL,NULL,NULL,NULL,NULL,NULL,NULL,NULL,NULL
47785,02/29/2020,162,1,test1,NULL,mixed,test-gener,1920.7900000038,NULL,474941,NULL,NULL,NULL,NULL,NULL,NULL,NULL,NULL,NULL,NULL,NULL,NULL,NULL,key,img/insects/bug2.jpg,img/dishware/plate1.jpg,img/cars/truck1.jpg,img/animals/pig1.jpg,img/furniture/desk1.jpg,img/clothes/pan1.jpg,NULL,NULL,NULL,0.0-162.0,16.669977142857,NULL,./audio/hage.mp3,clothes,"[5,5,5,5]",49,NULL,NULL,NULL,NULL,NULL,NULL,NULL,NULL,NULL,NULL,NULL,NULL,NULL,NULL,NULL,NULL,NULL,NULL,NULL,NULL,NULL,NULL,NULL,NULL,NULL,psychophysics,NULL,NULL,NULL,NULL,NULL,NULL,NULL,NULL,NULL,NULL,NULL,NULL,NULL,NULL,NULL,NULL,NULL,NULL
47785,02/29/2020,163,1,train1,NULL,mixed,NULL,,"<div style="font-size:60px;">+</div>",475194,,NULL,NULL,NULL,NULL,NULL,NULL,NULL,NULL,NULL,NULL,NULL,NULL,NULL,NULL,NULL,NULL,NULL,NULL,NULL,NULL,NULL,NULL,0.0-163.0,NULL,NULL,NULL,NULL,NULL,NULL,NULL,NULL,NULL,NULL,NULL,NULL,NULL,NULL,NULL,NULL,NULL,NULL,NULL,NULL,NULL,NULL,NULL,NULL,NULL,NULL,NULL,NULL,NULL,NULL,NULL,html-button-response,NULL,NULL,NULL,NULL,NULL,NULL,NULL,NULL,NULL,NULL,NULL,NULL,NULL,NULL,NULL,NULL,NULL,NULL
47785,02/29/2020,164,1,test1,NULL,mixed,test-gener,1362.0400000073,NULL,477559,NULL,NULL,NULL,NULL,NULL,NULL,NULL,NULL,NULL,NULL,NULL,NULL,NULL,key,img/clothes/pan2.jpg,img/dishware/bowl1.jpg,img/furniture/bed1.jpg,img/cars/bus1.jpg,img/insects/bug1.jpg,img/animals/bun1.jpg,NULL,NULL,NULL,0.0-164.0,16.667,NULL,./audio/gree.mp3,furniture,"[11,5,3,1]",54,NULL,NULL,NULL,NULL,NULL,NULL,NULL,NULL,NULL,NULL,NULL,NULL,NULL,NULL,NULL,NULL,NULL,NULL,NULL,NULL,NULL,NULL,NULL,NULL,NULL,psychophysics,NULL,NULL,NULL,NULL,NULL,NULL,NULL,NULL,NULL,NULL,NULL,NULL,NULL,NULL,NULL,NULL,NULL,NULL
47785,02/29/2020,165,1,train1,NULL,mixed,NULL,,"<div style="font-size:60px;">+</div>",477813,,NULL,NULL,NULL,NULL,NULL,NULL,NULL,NULL,NULL,NULL,NULL,NULL,NULL,NULL,NULL,NULL,NULL,NULL,NULL,NULL,NULL,NULL,0.0-165.0,NULL,NULL,NULL,NULL,NULL,NULL,NULL,NULL,NULL,NULL,NULL,NULL,NULL,NULL,NULL,NULL,NULL,NULL,NULL,NULL,NULL,NULL,NULL,NULL,NULL,NULL,NULL,NULL,NULL,NULL,NULL,html-button-response,NULL,NULL,NULL,NULL,NULL,NULL,NULL,NULL,NULL,NULL,NULL,NULL,NULL,NULL,NULL,NULL,NULL,NULL
47785,02/29/2020,166,1,test1,NULL,mixed,test-gener,448.45999999961,NULL,479263,NULL,NULL,NULL,NULL,NULL,NULL,NULL,NULL,NULL,NULL,NULL,NULL,NULL,key,img/animals/pig1.jpg,img/furniture/desk1.jpg,img/clothes/pan1.jpg,img/cars/truck1.jpg,img/dishware/plate1.jpg,img/insects/bug2.jpg,NULL,NULL,NULL,0.0-166.0,16.667,NULL,./audio/agen.mp3,car,"[5,5,5,5]",51,NULL,NULL,NULL,NULL,NULL,NULL,NULL,NULL,NULL,NULL,NULL,NULL,NULL,NULL,NULL,NULL,NULL,NULL,NULL,NULL,NULL,NULL,NULL,NULL,NULL,psychophysics,NULL,NULL,NULL,NULL,NULL,NULL,NULL,NULL,NULL,NULL,NULL,NULL,NULL,NULL,NULL,NULL,NULL,NULL
47785,02/29/2020,167,1,train1,NULL,mixed,NULL,,"<div style="font-size:60px;">+</div>",479517,,NULL,NULL,NULL,NULL,NULL,NULL,NULL,NULL,NULL,NULL,NULL,NULL,NULL,NULL,NULL,NULL,NULL,NULL,NULL,NULL,NULL,NULL,0.0-167.0,NULL,NULL,NULL,NULL,NULL,NULL,NULL,NULL,NULL,NULL,NULL,NULL,NULL,NULL,NULL,NULL,NULL,NULL,NULL,NULL,NULL,NULL,NULL,NULL,NULL,NULL,NULL,NULL,NULL,NULL,NULL,html-button-response,NULL,NULL,NULL,NULL,NULL,NULL,NULL,NULL,NULL,NULL,NULL,NULL,NULL,NULL,NULL,NULL,NULL,NULL
47785,02/29/2020,168,1,test1,NULL,mixed,test-gener,373.07000000146,NULL,480892,NULL,NULL,NULL,NULL,NULL,NULL,NULL,NULL,NULL,NULL,NULL,NULL,NULL,key,img/clothes/pan1.jpg,img/cars/truck1.jpg,img/animals/pig1.jpg,img/dishware/plate1.jpg,img/furniture/desk1.jpg,img/insects/bug2.jpg,NULL,NULL,NULL,0.0-168.0,16.870256097561,NULL,./audio/eder.mp3,insect,"[11,5,3,1]",53,NULL,NULL,NULL,NULL,NULL,NULL,NULL,NULL,NULL,NULL,NULL,NULL,NULL,NULL,NULL,NULL,NULL,NULL,NULL,NULL,NULL,NULL,NULL,NULL,NULL,psychophysics,NULL,NULL,NULL,NULL,NULL,NULL,NULL,NULL,NULL,NULL,NULL,NULL,NULL,NULL,NULL,NULL,NULL,NULL
47785,02/29/2020,169,1,train1,NULL,mixed,NULL,,"<div style="font-size:60px;">+</div>",481145,,NULL,NULL,NULL,NULL,NULL,NULL,NULL,NULL,NULL,NULL,NULL,NULL,NULL,NULL,NULL,NULL,NULL,NULL,NULL,NULL,NULL,NULL,0.0-169.0,NULL,NULL,NULL,NULL,NULL,NULL,NULL,NULL,NULL,NULL,NULL,NULL,NULL,NULL,NULL,NULL,NULL,NULL,NULL,NULL,NULL,NULL,NULL,NULL,NULL,NULL,NULL,NULL,NULL,NULL,NULL,html-button-response,NULL,NULL,NULL,NULL,NULL,NULL,NULL,NULL,NULL,NULL,NULL,NULL,NULL,NULL,NULL,NULL,NULL,NULL
47785,02/29/2020,170,1,test1,NULL,mixed,test-gener,321.97999999335,NULL,482468,NULL,NULL,NULL,NULL,NULL,NULL,NULL,NULL,NULL,NULL,NULL,NULL,NULL,key,img/dishware/plate1.jpg,img/insects/bug2.jpg,img/cars/truck1.jpg,img/animals/pig1.jpg,img/clothes/pan1.jpg,img/furniture/desk1.jpg,NULL,NULL,NULL,0.0-170.0,16.672911392405,NULL,./audio/culp.mp3,kitchen,"[5,5,5,5]",50,NULL,NULL,NULL,NULL,NULL,NULL,NULL,NULL,NULL,NULL,NULL,NULL,NULL,NULL,NULL,NULL,NULL,NULL,NULL,NULL,NULL,NULL,NULL,NULL,NULL,psychophysics,NULL,NULL,NULL,NULL,NULL,NULL,NULL,NULL,NULL,NULL,NULL,NULL,NULL,NULL,NULL,NULL,NULL,NULL
47785,02/29/2020,171,1,train1,NULL,mixed,NULL,,"<div style="font-size:60px;">+</div>",482724,,NULL,NULL,NULL,NULL,NULL,NULL,NULL,NULL,NULL,NULL,NULL,NULL,NULL,NULL,NULL,NULL,NULL,NULL,NULL,NULL,NULL,NULL,0.0-171.0,NULL,NULL,NULL,NULL,NULL,NULL,NULL,NULL,NULL,NULL,NULL,NULL,NULL,NULL,NULL,NULL,NULL,NULL,NULL,NULL,NULL,NULL,NULL,NULL,NULL,NULL,NULL,NULL,NULL,NULL,NULL,html-button-response,NULL,NULL,NULL,NULL,NULL,NULL,NULL,NULL,NULL,NULL,NULL,NULL,NULL,NULL,NULL,NULL,NULL,NULL
47785,02/29/2020,172,1,test1,NULL,mixed,test-gener,382.64500000514,NULL,484107,NULL,NULL,NULL,NULL,NULL,NULL,NULL,NULL,NULL,NULL,NULL,NULL,NULL,key,img/dishware/bowl1.jpg,img/animals/bun1.jpg,img/cars/bus1.jpg,img/clothes/pan2.jpg,img/insects/bug1.jpg,img/furniture/bed1.jpg,NULL,NULL,NULL,0.0-172.0,16.667,NULL,./audio/hage.mp3,clothes,"[5,5,5,5]",52,NULL,NULL,NULL,NULL,NULL,NULL,NULL,NULL,NULL,NULL,NULL,NULL,NULL,NULL,NULL,NULL,NULL,NULL,NULL,NULL,NULL,NULL,NULL,NULL,NULL,psychophysics,NULL,NULL,NULL,NULL,NULL,NULL,NULL,NULL,NULL,NULL,NULL,NULL,NULL,NULL,NULL,NULL,NULL,NULL
47785,02/29/2020,173,1,train1,NULL,mixed,NULL,,"<div style="font-size:60px;">+</div>",484361,,NULL,NULL,NULL,NULL,NULL,NULL,NULL,NULL,NULL,NULL,NULL,NULL,NULL,NULL,NULL,NULL,NULL,NULL,NULL,NULL,NULL,NULL,0.0-173.0,NULL,NULL,NULL,NULL,NULL,NULL,NULL,NULL,NULL,NULL,NULL,NULL,NULL,NULL,NULL,NULL,NULL,NULL,NULL,NULL,NULL,NULL,NULL,NULL,NULL,NULL,NULL,NULL,NULL,NULL,NULL,html-button-response,NULL,NULL,NULL,NULL,NULL,NULL,NULL,NULL,NULL,NULL,NULL,NULL,NULL,NULL,NULL,NULL,NULL,NULL
47785,02/29/2020,174,1,test1,NULL,mixed,test-gener,2352.0200000057,NULL,487714,NULL,NULL,NULL,NULL,NULL,NULL,NULL,NULL,NULL,NULL,NULL,NULL,NULL,key,img/dishware/bowl1.jpg,img/cars/bus1.jpg,img/animals/bun1.jpg,img/insects/bug1.jpg,img/furniture/bed1.jpg,img/clothes/pan2.jpg,NULL,NULL,NULL,0.0-174.0,16.667,NULL,./audio/culp.mp3,kitchen,"[5,5,5,5]",53,NULL,NULL,NULL,NULL,NULL,NULL,NULL,NULL,NULL,NULL,NULL,NULL,NULL,NULL,NULL,NULL,NULL,NULL,NULL,NULL,NULL,NULL,NULL,NULL,NULL,psychophysics,NULL,NULL,NULL,NULL,NULL,NULL,NULL,NULL,NULL,NULL,NULL,NULL,NULL,NULL,NULL,NULL,NULL,NULL
47785,02/29/2020,175,1,train1,NULL,mixed,NULL,,"<div style="font-size:60px;">+</div>",487966,,NULL,NULL,NULL,NULL,NULL,NULL,NULL,NULL,NULL,NULL,NULL,NULL,NULL,NULL,NULL,NULL,NULL,NULL,NULL,NULL,NULL,NULL,0.0-175.0,NULL,NULL,NULL,NULL,NULL,NULL,NULL,NULL,NULL,NULL,NULL,NULL,NULL,NULL,NULL,NULL,NULL,NULL,NULL,NULL,NULL,NULL,NULL,NULL,NULL,NULL,NULL,NULL,NULL,NULL,NULL,html-button-response,NULL,NULL,NULL,NULL,NULL,NULL,NULL,NULL,NULL,NULL,NULL,NULL,NULL,NULL,NULL,NULL,NULL,NULL
47785,02/29/2020,176,1,test1,NULL,mixed,test-gener,1026.3799999957,NULL,489993,NULL,NULL,NULL,NULL,NULL,NULL,NULL,NULL,NULL,NULL,NULL,NULL,NULL,key,img/animals/bun1.jpg,img/furniture/bed1.jpg,img/insects/bug1.jpg,img/cars/bus1.jpg,img/dishware/bowl1.jpg,img/clothes/pan2.jpg,NULL,NULL,NULL,0.0-176.0,16.804743801653,NULL,./audio/coodle.mp3,dog,"[11,5,3,1]",52,NULL,NULL,NULL,NULL,NULL,NULL,NULL,NULL,NULL,NULL,NULL,NULL,NULL,NULL,NULL,NULL,NULL,NULL,NULL,NULL,NULL,NULL,NULL,NULL,NULL,psychophysics,NULL,NULL,NULL,NULL,NULL,NULL,NULL,NULL,NULL,NULL,NULL,NULL,NULL,NULL,NULL,NULL,NULL,NULL
47785,02/29/2020,177,1,train1,NULL,mixed,NULL,,"<div style="font-size:60px;">+</div>",490245,,NULL,NULL,NULL,NULL,NULL,NULL,NULL,NULL,NULL,NULL,NULL,NULL,NULL,NULL,NULL,NULL,NULL,NULL,NULL,NULL,NULL,NULL,0.0-177.0,NULL,NULL,NULL,NULL,NULL,NULL,NULL,NULL,NULL,NULL,NULL,NULL,NULL,NULL,NULL,NULL,NULL,NULL,NULL,NULL,NULL,NULL,NULL,NULL,NULL,NULL,NULL,NULL,NULL,NULL,NULL,html-button-response,NULL,NULL,NULL,NULL,NULL,NULL,NULL,NULL,NULL,NULL,NULL,NULL,NULL,NULL,NULL,NULL,NULL,NULL
47785,02/29/2020,178,1,test1,NULL,mixed,test-gener,778.50000000035,NULL,492026,NULL,NULL,NULL,NULL,NULL,NULL,NULL,NULL,NULL,NULL,NULL,NULL,NULL,key,img/animals/pig1.jpg,img/furniture/desk1.jpg,img/dishware/plate1.jpg,img/cars/truck1.jpg,img/clothes/pan1.jpg,img/insects/bug2.jpg,NULL,NULL,NULL,0.0-178.0,16.667,NULL,./audio/coodle.mp3,dog,"[11,5,3,1]",52,NULL,NULL,NULL,NULL,NULL,NULL,NULL,NULL,NULL,NULL,NULL,NULL,NULL,NULL,NULL,NULL,NULL,NULL,NULL,NULL,NULL,NULL,NULL,NULL,NULL,psychophysics,NULL,NULL,NULL,NULL,NULL,NULL,NULL,NULL,NULL,NULL,NULL,NULL,NULL,NULL,NULL,NULL,NULL,NULL
47785,02/29/2020,179,1,train1,NULL,mixed,NULL,,"<div style="font-size:60px;">+</div>",492279,,NULL,NULL,NULL,NULL,NULL,NULL,NULL,NULL,NULL,NULL,NULL,NULL,NULL,NULL,NULL,NULL,NULL,NULL,NULL,NULL,NULL,NULL,0.0-179.0,NULL,NULL,NULL,NULL,NULL,NULL,NULL,NULL,NULL,NULL,NULL,NULL,NULL,NULL,NULL,NULL,NULL,NULL,NULL,NULL,NULL,NULL,NULL,NULL,NULL,NULL,NULL,NULL,NULL,NULL,NULL,html-button-response,NULL,NULL,NULL,NULL,NULL,NULL,NULL,NULL,NULL,NULL,NULL,NULL,NULL,NULL,NULL,NULL,NULL,NULL
NULL,NULL,180,NULL,NULL,NULL,NULL,NULL,2919.8699999979,"You have finished the 1st testing phase and are approximately 1/3 of the way done! Please press continue",495200,0,NULL,NULL,NULL,NULL,NULL,NULL,NULL,NULL,NULL,NULL,NULL,NULL,NULL,NULL,NULL,NULL,NULL,NULL,NULL,NULL,NULL,NULL,0.0-180.0,NULL,NULL,NULL,NULL,NULL,NULL,NULL,NULL,NULL,NULL,NULL,NULL,NULL,NULL,NULL,NULL,NULL,NULL,NULL,NULL,NULL,NULL,NULL,NULL,NULL,NULL,NULL,NULL,NULL,NULL,NULL,html-button-response,NULL,NULL,NULL,NULL,NULL,NULL,NULL,NULL,NULL,NULL,NULL,NULL,NULL,NULL,NULL,NULL,NULL,NULL
47785,02/29/2020,181,2,train2,"[3,2,1]",Unf,NULL,5688.3050000033,"You are now beginning the second training phase of the experiment, you will see 2 images appear on the screen, and also hear 2 sounds played in random order. Pay attention to the images and sounds, and after the 2nd sound plays, proceed to the next trial by pressing the spacebar.",500890,0,NULL,NULL,NULL,NULL,NULL,NULL,NULL,NULL,NULL,NULL,NULL,NULL,NULL,NULL,NULL,NULL,NULL,NULL,NULL,NULL,NULL,NULL,0.0-181.0,NULL,NULL,NULL,NULL,NULL,NULL,./audio/nare.mp3,./audio/ratch.mp3,./audio/pizer.mp3,./audio/jick.mp3,./audio/slint.mp3,./audio/hux.mp3,"[5,5,5,5]","[5,5,5,5]","[5,5,5,5]","[5,5,5,5]","[5,5,5,5]","[5,5,5,5]",NULL,NULL,NULL,NULL,NULL,NULL,NULL,NULL,NULL,NULL,NULL,NULL,NULL,html-button-response,NULL,NULL,NULL,NULL,NULL,NULL,"[4,5,3,1,2,0]","[5,4,2,3,1,0]","[2,1,4,3,5,0]","[0,1,4,5,3,2]","[2,3,5,4,0,1]","[4,1,2,5,3,0]",NULL,NULL,NULL,NULL,NULL,NULL
47785,02/29/2020,182,2,train2,NULL,mixed,NULL,4001.8550000095,NULL,507493,NULL,NULL,NULL,NULL,NULL,NULL,NULL,NULL,NULL,NULL,NULL,NULL,NULL,key,img/fruits/ber4.jpg,img/appliance/microwave2.jpg,img/bird/pigeon6.jpg,NULL,NULL,NULL,./audio/hux.mp3,./audio/jick.mp3,./audio/slint.mp3,0.0-182.0,16.668232323232,NULL,NULL,NULL,NULL,32,NULL,NULL,NULL,NULL,NULL,NULL,NULL,NULL,NULL,NULL,NULL,NULL,NULL,NULL,NULL,NULL,NULL,NULL,NULL,NULL,NULL,NULL,NULL,NULL,NULL,psychophysics,NULL,NULL,NULL,NULL,NULL,NULL,NULL,NULL,NULL,NULL,NULL,NULL,NULL,NULL,NULL,NULL,NULL,NULL
47785,02/29/2020,183,2,train2,NULL,Unf,NULL,,"<div style="font-size:60px;">+</div>",507744,,NULL,NULL,NULL,NULL,NULL,NULL,NULL,NULL,NULL,NULL,NULL,NULL,NULL,NULL,NULL,NULL,NULL,NULL,NULL,NULL,NULL,NULL,0.0-183.0,NULL,NULL,NULL,NULL,NULL,NULL,NULL,NULL,NULL,NULL,NULL,NULL,NULL,NULL,NULL,NULL,NULL,NULL,NULL,NULL,NULL,NULL,NULL,NULL,NULL,NULL,NULL,NULL,NULL,NULL,NULL,html-button-response,NULL,NULL,NULL,NULL,NULL,NULL,NULL,NULL,NULL,NULL,NULL,NULL,NULL,NULL,NULL,NULL,NULL,NULL
47785,02/29/2020,184,2,train2,NULL,mixed,NULL,7383.759999997,NULL,517729,NULL,NULL,NULL,NULL,NULL,NULL,NULL,NULL,NULL,NULL,NULL,NULL,NULL,key,img/appliance/microwave3.jpg,img/bird/pigeon1.jpg,img/plant/bonsai5.jpg,NULL,NULL,NULL,./audio/ratch.mp3,./audio/jick.mp3,./audio/hux.mp3,0.0-184.0,16.667823038397,NULL,NULL,NULL,NULL,32,NULL,NULL,NULL,NULL,NULL,NULL,NULL,NULL,NULL,NULL,NULL,NULL,NULL,NULL,NULL,NULL,NULL,NULL,NULL,NULL,NULL,NULL,NULL,NULL,NULL,psychophysics,NULL,NULL,NULL,NULL,NULL,NULL,NULL,NULL,NULL,NULL,NULL,NULL,NULL,NULL,NULL,NULL,NULL,NULL
47785,02/29/2020,185,2,train2,NULL,Unf,NULL,,"<div style="font-size:60px;">+</div>",517984,,NULL,NULL,NULL,NULL,NULL,NULL,NULL,NULL,NULL,NULL,NULL,NULL,NULL,NULL,NULL,NULL,NULL,NULL,NULL,NULL,NULL,NULL,0.0-185.0,NULL,NULL,NULL,NULL,NULL,NULL,NULL,NULL,NULL,NULL,NULL,NULL,NULL,NULL,NULL,NULL,NULL,NULL,NULL,NULL,NULL,NULL,NULL,NULL,NULL,NULL,NULL,NULL,NULL,NULL,NULL,html-button-response,NULL,NULL,NULL,NULL,NULL,NULL,NULL,NULL,NULL,NULL,NULL,NULL,NULL,NULL,NULL,NULL,NULL,NULL
47785,02/29/2020,186,2,train2,NULL,mixed,NULL,3834.3699999969,NULL,524420,NULL,NULL,NULL,NULL,NULL,NULL,NULL,NULL,NULL,NULL,NULL,NULL,NULL,key,img/instrument/mandolin3.jpg,img/tools/screwdriver5.jpg,img/bird/pigeon6.jpg,NULL,NULL,NULL,./audio/nare.mp3,./audio/pizer.mp3,./audio/jick.mp3,0.0-186.0,16.71154025974,NULL,NULL,NULL,NULL,32,NULL,NULL,NULL,NULL,NULL,NULL,NULL,NULL,NULL,NULL,NULL,NULL,NULL,NULL,NULL,NULL,NULL,NULL,NULL,NULL,NULL,NULL,NULL,NULL,NULL,psychophysics,NULL,NULL,NULL,NULL,NULL,NULL,NULL,NULL,NULL,NULL,NULL,NULL,NULL,NULL,NULL,NULL,NULL,NULL
